t, ax, ay, az, gx, gy, gz, ax_calib, ay_calib, az_calib,
0, 1.419761584472656, 0.031124621582031248, -9.45470235595703, 0.006671755725191075, -0.07910687022900739, 0.049503816793897926, 0.0027126304809586, 0.0398443040283203, 0.02306095039062761
0.1, 1.4987702392578124, -0.031124621582031248, -9.425971936035156, -0.06203053435114475, -0.23941221374045776, 0.02660305343511915, 0.08172128526611488, -0.022404939135742194, 0.05179137031250214
0.2, 1.5059528442382812, 0.05746083984375, -9.490615380859374, -0.054396946564885196, -0.056206106870228756, 0.049503816793897926, 0.08890389024658374, 0.06618052229003905, -0.012852074511716438
0.30000000000000004, 1.3263877197265623, -0.016759411621093748, -9.478644372558593, -0.06203053435114475, -0.056206106870228756, -0.0115648854961794, -0.09066123426513517, -0.008039729174804696, -0.0008810662109350886
0.4, 1.3287819213867187, -0.1197100830078125, -9.366116894531249, -0.06203053435114475, 0.1575343511450384, -0.09553435114503372, -0.08826703260497881, -0.11099040056152344, 0.11164641181640889
0.5, 1.426944189453125, -0.0047884033203125, -9.437942944335937, 0.19751145038167972, 0.081198473282443, 0.14874045801527203, 0.009895235461427454, 0.003931279125976552, 0.03982036201172079
0.6, 1.5298948608398437, -0.00239420166015625, -9.466673364257812, 0.09064122137404607, 0.035396946564885734, 0.0876717557251947, 0.11284590684814622, 0.006325480786132803, 0.01108994208984626
0.7, 1.4173673828125, 0.00718260498046875, -9.648632690429688, -0.08493129770992336, 0.035396946564885734, 0.12583969465649325, 0.00031842882080246326, 0.015902287426757804, -0.1708693840820299
0.7999999999999999, 1.4173673828125, -0.01915361328125, -9.504980590820312, -0.0696641221374043, -0.010404580152671483, -1.9657633587786218, 0.00031842882080246326, -0.010433930834960947, -0.027217284472653702
0.8999999999999999, 1.350329736328125, -0.033518823242187495, -9.509768994140625, 0.06010687022900796, -0.06383969465648831, -0.07263358778625495, -0.06671921766357247, -0.02479914079589844, -0.03200568779296731
0.9999999999999999, 1.6615759521484375, 0.00718260498046875, -9.445125549316407, -0.054396946564885196, 0.0659312977099239, 0.0876717557251947, 0.24452699815673995, 0.015902287426757804, 0.03263775703125127
1.0999999999999999, 1.429338391113281, -0.011971008300781249, -9.4618849609375, 0.021938931297710185, -0.056206106870228756, 0.03423664122137815, 0.01228943712158359, -0.003251325854492197, 0.01587834541015809
1.2, 1.429338391113281, -0.0383072265625, -9.502586389160156, -0.08493129770992336, 0.02776335877862618, 0.0953053435114537, 0.01228943712158359, -0.029587544116210944, -0.024823082812497788
1.3, 1.3646949462890625, -0.02633621826171875, -9.358934289550781, 0.04483969465648885, -0.010404580152671483, 1.9197328244274843, -0.052354007702634986, -0.0176165358154297, 0.11882901679687663
1.4000000000000001, 1.4772224243164063, -0.1484405029296875, -9.502586389160156, 0.006671755725191075, 0.11173282442748117, -0.042099236641217175, 0.06017347032470877, -0.13972082048339846, -0.024823082812497788
1.5000000000000002, 1.455674609375, 0.033518823242187495, -9.469067565917967, -0.19180152671755696, 0.12700000000000022, -0.1260687022900715, 0.038625655383302426, 0.04223850568847655, 0.008695740429690346
1.6000000000000003, 1.350329736328125, -0.00718260498046875, -9.445125549316407, -0.22996946564885468, -0.056206106870228756, -0.08026717557251573, -0.06671921766357247, 0.001537077465820302, 0.03263775703125127
1.7000000000000004, 1.388636962890625, 0.047884033203124995, -9.488221179199218, 0.01430534351145063, -0.04857251908396923, 0.14110687022901125, -0.02841199110107251, 0.05660371564941405, -0.010457872851560523
1.8000000000000005, 1.4772224243164063, 0.0047884033203125, -9.471461767578125, -0.12309923664122108, -0.07910687022900739, 0.011335877862599375, 0.06017347032470877, 0.013508085766601553, 0.006301538769532655
1.9000000000000006, 1.3287819213867187, 0.04548983154296875, -9.349357482910156, 0.18987786259542017, -0.018038167938931038, 0.03423664122137815, -0.08826703260497881, 0.0542095139892578, 0.12840582343750206
2.0000000000000004, 1.419761584472656, -0.033518823242187495, -9.464279162597656, 0.07537404580152696, -0.06383969465648831, -1.958129770992362, 0.0027126304809586, -0.02479914079589844, 0.013484143750002175
2.1000000000000005, 1.5179238525390624, -0.0143652099609375, -9.459490759277344, -0.0696641221374043, -0.025671755725190593, 0.16400763358779002, 0.10087489854736487, -0.005645527514648448, 0.018272547070314005
2.2000000000000006, 1.3934253662109375, 0.01915361328125, -9.56962403564453, 0.19751145038167972, 0.12700000000000022, -0.0268320610686974, -0.023623587780760014, 0.02787329572753905, -0.09186072929687228
2.3000000000000007, 1.4628572143554686, 0.009576806640625, -9.495403784179686, -0.07729770992366386, 0.004862595419847571, 0.0953053435114537, 0.04580826036377106, 0.01829648908691405, -0.017640477832028267
2.400000000000001, 1.3814543579101561, 0.07422025146484375, -9.488221179199218, 0.1517099236641224, -0.056206106870228756, 0.0800381679389357, -0.03559459608154136, 0.0829399339111328, -0.010457872851560523
2.500000000000001, 1.3742717529296875, -0.05985504150390625, -9.583989245605467, -0.0009618320610684239, 0.02012977099236668, 0.12583969465649325, -0.042777201062009995, -0.051135359057617194, -0.10622593925780954
2.600000000000001, 1.2306196533203124, -0.00239420166015625, -9.447519750976562, -0.08493129770992336, -0.11727480916030511, 0.10293893129771448, -0.18642930067138508, 0.006325480786132803, 0.030243555371095354
2.700000000000001, 1.4101847778320311, 0.02154781494140625, -9.478644372558593, -0.08493129770992336, 0.012496183206107125, 0.11820610687023247, -0.006864176159666391, 0.030267497387695304, -0.0008810662109350886
2.800000000000001, 1.4939818359375, 0.031124621582031248, -9.490615380859374, 0.021938931297710185, 0.02012977099236668, 1.927366412213745, 0.07693288194580239, 0.0398443040283203, -0.012852074511716438
2.9000000000000012, 1.3766659545898436, -0.15322890625, -9.521740002441407, -0.008595419847327979, -0.1325419847328242, 0.13347328244275225, -0.04038299940185386, -0.14450922380371095, -0.04397669609374866
3.0000000000000013, 1.3407529296874998, 0.00239420166015625, -9.442731347656249, -0.2757709923664119, -0.03330534351145015, 0.011335877862599375, -0.07629602430419768, 0.011113884106445301, 0.03503195869140896
3.1000000000000014, 1.4724340209960938, -0.0143652099609375, -9.466673364257812, 0.09827480916030562, -0.07910687022900739, -0.034465648854958175, 0.05538506700439627, -0.005645527514648448, 0.01108994208984626
3.2000000000000015, 1.455674609375, 0.031124621582031248, -9.485826977539062, -0.11546564885496152, -0.010404580152671483, 1.8891984732824465, 0.038625655383302426, 0.0398443040283203, -0.008063671191404609
3.3000000000000016, 1.438915197753906, 0.031124621582031248, -9.433154541015625, 0.14407633587786284, -0.07910687022900739, -0.08790076335877473, 0.02186624376220858, 0.0398443040283203, 0.04460876533203262
3.4000000000000017, 1.235408056640625, -0.033518823242187495, -9.488221179199218, -0.016229007633587478, -0.07910687022900739, -0.0039312977099204005, -0.18164089735107258, -0.02479914079589844, -0.010457872851560523
3.5000000000000018, 1.4963760375976562, 0.14604630126953125, -9.488221179199218, 0.10590839694656518, -0.14017557251908372, 0.02660305343511915, 0.07932708360595875, 0.1547659837158203, -0.010457872851560523
3.600000000000002, 1.4508862060546874, -0.076614453125, -9.437942944335937, -0.15363358778625924, -0.9417022900763357, 0.0953053435114537, 0.03383725206298993, -0.06789477067871094, 0.03982036201172079
3.700000000000002, 1.7429788085937499, -0.2561795776367187, -9.428366137695312, -0.5353129770992363, 0.5010458015267178, -2.1337022900763314, 0.32592985460205237, -0.24745989519042969, 0.049397168652346224
3.800000000000002, 1.0486603271484374, -0.076614453125, -9.30147344970703, 2.0143053435114506, 3.096465648854962, -2.6451526717557208, -0.3683886268432601, -0.06789477067871094, 0.17628985664062746
3.900000000000002, 1.438915197753906, 0.2657563842773437, -9.583989245605467, -0.41317557251908366, -3.3920839694656486, 0.6525572519084015, 0.02186624376220858, 0.2744760667236328, -0.10622593925780954
4.000000000000002, 1.5346832641601562, 0.19871873779296872, -9.421183532714844, -0.14599999999999974, -1.9264351145038165, 3.6754580152671803, 0.11763431016845871, 0.20743842023925776, 0.05657977363281397
4.100000000000001, 2.1021090576171875, 0.35194764404296874, -9.373299499511718, 1.4188854961832065, 4.317839694656489, 0.8052290076335922, 0.68506010362549, 0.3606673264892578, 0.10446380683593937
4.200000000000001, 1.1707646118164061, 0.08379705810546874, -9.466673364257812, -0.8024885496183203, 4.13463358778626, 1.6296564885496228, -0.24628434217529138, 0.09251674055175779, 0.01108994208984626
4.300000000000001, 0.86191259765625, -0.37828386230468747, -9.495403784179686, 1.3654503816793895, 1.7834885496183208, -6.469580152671751, -0.5551363563354476, -0.3695641798583984, -0.017640477832028267
4.4, 1.209071838378906, 0.29448680419921874, -9.234435803222656, 1.0143053435114506, 0.37890839694656514, 4.3472137404580184, -0.20797711561279142, 0.3032064866455078, 0.24332750312500195
4.5, 1.2904746948242187, -0.09337386474609374, -9.5001921875, -0.48187786259541954, -0.20124427480916007, 2.1105725190839735, -0.12657425916747878, -0.08465418229980469, -0.022428881152341873
4.6, 1.0486603271484374, -0.02633621826171875, -9.576806640625, 0.3807175572519087, -1.9875038167938928, 0.935000000000004, -0.3683886268432601, -0.0176165358154297, -0.0990433342773418
4.699999999999999, 1.5155296508789062, -0.19871873779296872, -9.473855969238281, 0.876900763358779, -3.758496183206107, 2.6296564885496228, 0.09848069688720873, -0.18999905534667968, 0.003907337109376741
4.799999999999999, 1.4149731811523436, 0.040701428222656245, -9.356540087890625, 0.6707938931297713, -2.239412213740458, 0.7365267175572559, -0.0020757728393538954, 0.0494211106689453, 0.12122321845703254
4.899999999999999, 1.4700398193359374, 0.12449848632812499, -9.375693701171874, 0.4265190839694659, 1.5621145038167943, -2.629885496183202, 0.05299086534423991, 0.13321816877441403, 0.10206960517578345
4.999999999999998, 1.8004396484374998, 0.05746083984375, -9.485826977539062, -0.25287022900763334, 0.47814503816793913, -0.05736641221373695, 0.3833906944458023, 0.06618052229003905, -0.008063671191404609
5.099999999999998, 1.2761094848632812, -0.05746083984375, -9.45470235595703, -0.0467633587786257, 2.646083969465649, -0.2940076335877819, -0.14093946912841626, -0.048741157397460946, 0.02306095039062761
5.1999999999999975, 1.1444283935546875, 0.239420166015625, -9.770736975097655, 0.4494198473282446, 2.6842519083969467, -1.1031679389312945, -0.27262056043701, 0.24813984846191403, -0.29297366874999753
5.299999999999997, 1.3575123413085937, 0.1005564697265625, -9.567229833984374, -2.214702290076336, 3.1117328244274813, -0.843625954198469, -0.05953661268310384, 0.10927615217285155, -0.08946652763671636
5.399999999999997, 0.9816226806640624, -0.13646949462890623, -9.10993731689453, -2.077297709923664, -1.9264351145038165, -0.5230152671755679, -0.43542627332763506, -0.1277498121826172, 0.3678259894531273
5.4999999999999964, 1.8363526733398436, 0.19871873779296872, -9.849745629882811, -0.9322595419847326, 2.7071526717557255, -0.6527862595419816, 0.41930371934814614, 0.20743842023925776, -0.37198232353515337
5.599999999999996, 1.3120225097656248, 0.0, -9.533711010742186, -0.19180152671755696, 0.8827251908396949, -3.4543129770992325, -0.10502644422607266, 0.008719682446289052, -0.05594770439452823
5.699999999999996, 1.2617442749023438, -0.1771709228515625, -9.344569079589844, 1.6173587786259542, -0.5218549618320608, -3.2176717557251866, -0.15530467908935375, -0.16845124040527346, 0.1331942267578139
5.799999999999995, 1.180341418457031, 0.03591302490234375, -9.86411083984375, 3.4341526717557254, -0.7279618320610685, 0.43881679389313355, -0.2367075355346664, 0.044632707348632804, -0.3863475334960924
5.899999999999995, 1.4891934326171874, 0.17238251953125, -9.593566052246093, 2.1822442748091606, -1.3920839694656486, -1.5917175572519042, 0.0721444786254899, 0.18110220197753904, -0.11580274589843498
5.999999999999995, 1.3455413330078123, 0.08140285644531249, -9.337386474609374, -0.016229007633587478, 3.2796717557251913, -1.385610687022897, -0.07150762098388519, 0.09012253889160154, 0.14037683173828341
6.099999999999994, 1.1085153686523437, 0.09337386474609374, -9.423577734375, -0.7795877862595417, 4.9361603053435115, 0.2937786259542019, -0.3085335853393538, 0.1020935471923828, 0.05418557197265805
6.199999999999994, 0.9744400756835937, 0.04548983154296875, -9.382876306152344, -1.2452366412213738, 2.668984732824428, 0.14874045801527203, -0.4426088783081038, 0.0542095139892578, 0.09488700019531393
6.299999999999994, 0.97683427734375, 0.03591302490234375, -9.636661682128906, -1.4131755725190835, -1.3615496183206104, -1.843625954198469, -0.44021467664794756, 0.044632707348632804, -0.15889837578124855
6.399999999999993, 1.0749965454101562, 0.05746083984375, -9.49300958251953, -1.9475267175572517, -2.3920839694656486, -0.2253053435114456, -0.3420524085815413, 0.06618052229003905, -0.015246276171872353
6.499999999999993, 1.2497732666015624, 0.02154781494140625, -9.279925634765624, -2.275770992366412, -0.7279618320610685, -0.35507633587785925, -0.1672756873901351, 0.030267497387695304, 0.19783767158203425
6.5999999999999925, 1.0726023437499999, -0.05027823486328125, -9.528922607421874, -2.2528702290076335, 0.4323435114503819, 0.14874045801527203, -0.34444661024169765, -0.041558552416992196, -0.0511593010742164
6.699999999999992, 1.2737152832031249, -0.031124621582031248, -9.612719665527344, -0.29867175572519056, 0.9056259541984737, 1.0418702290076371, -0.14333367078857262, -0.022404939135742194, -0.13495635917968585
6.799999999999992, 1.0821791503906248, -0.02154781494140625, -9.504980590820312, 0.6631603053435117, 0.8521908396946567, -0.3321755725190805, -0.33486980360107266, -0.012828132495117198, -0.027217284472653702
6.8999999999999915, 1.1659762084960936, -0.023942016601562498, -9.394847314453125, 0.541022900763359, 0.9590610687022905, -1.82835877862595, -0.2510727454956039, -0.015222334155273446, 0.08291599189453258
6.999999999999991, 0.9864110839843749, -0.07900865478515624, -9.440337145996093, -0.6650839694656485, 1.1040992366412217, 0.32431297709924145, -0.43063787000732257, -0.07028897233886719, 0.037426160351564874
7.099999999999991, 0.9552864624023437, -0.023942016601562498, -9.552864624023437, -1.1459999999999997, 0.1957022900763361, 0.5380534351145076, -0.4617624915893538, -0.015222334155273446, -0.0751013176757791
7.19999999999999, 1.0534487304687499, -0.023942016601562498, -9.512163195800781, -0.0009618320610684239, -1.3615496183206104, -1.0879007633587747, -0.36360022352294763, -0.015222334155273446, -0.03439988945312322
7.29999999999999, 1.209071838378906, -0.0430956298828125, -9.392453112792968, 0.28911450381679416, -0.42261832061068677, -1.1871374045801488, -0.20797711561279142, -0.034375947436523446, 0.08531019355469027
7.39999999999999, 1.2234370483398436, -0.14604630126953125, -9.639055883789062, 0.6478931297709926, 0.1880687022900766, 1.9731679389313026, -0.19361190565185393, -0.1373266188232422, -0.16129257744140446
7.499999999999989, 0.9528922607421875, 0.16519991455078123, -9.3852705078125, -0.21470229007633557, 0.29493893129771015, -0.7825572519083934, -0.46415669324951003, 0.17391959699707027, 0.09249279853515802
7.599999999999989, 1.0797849487304687, 0.0718260498046875, -9.291896643066405, -1.0849312977099235, 1.2873053435114508, -2.8665267175572477, -0.3372640052612288, 0.08054573225097655, 0.1858666632812529
7.699999999999989, 1.0390835205078124, -0.13646949462890623, -9.471461767578125, -1.0162290076335876, 1.1422671755725193, 1.0953053435114537, -0.3779654334838851, -0.1277498121826172, 0.006301538769532655
7.799999999999988, 0.833182177734375, -0.04548983154296875, -9.516951599121093, 0.6478931297709926, -0.8119312977099233, -1.278740458015264, -0.5838667762573225, -0.036770149096679694, -0.03918829277343505
7.899999999999988, 1.13006318359375, -0.09816226806640624, -9.236830004882812, 1.9990381679389313, -1.4378854961832057, -2.034465648854958, -0.2869857703979475, -0.08944258562011718, 0.24093330146484604
7.999999999999988, 1.1276689819335937, 0.028730419921875, -9.68454571533203, 4.105908396946565, -1.5600229007633584, 3.8510305343511497, -0.28937997205810384, 0.037450102368164054, -0.20678240898437217
8.099999999999987, 1.3575123413085937, 0.016759411621093748, -9.689334118652344, 5.403618320610687, -1.2623129770992363, 1.49225190839695, -0.05953661268310384, 0.0254790940673828, -0.21157081230468577
8.199999999999987, 1.1875240234375, 0.21068974609375, -9.631873278808593, 4.014305343511451, 0.20333587786259566, 6.339580152671761, -0.22952493055419754, 0.21940942854003903, -0.15410997246093494
8.299999999999986, 1.1420341918945311, 0.24899697265624998, -9.464279162597656, 1.5639236641221377, 1.149900763358779, 1.83576335877863, -0.27501476209716635, 0.25771665510253905, 0.013484143750002175
8.399999999999986, 1.22583125, 0.20829554443359374, -9.361328491210937, -1.4131755725190835, 1.9666946564885501, -0.4924809160305301, -0.19121770399169757, 0.21701522687988278, 0.11643481513672072
8.499999999999986, 1.2018892333984375, 0.17477672119140625, -9.504980590820312, -3.4360763358778623, 1.997229007633588, 1.0953053435114537, -0.21515972059326005, 0.1834964036376953, -0.027217284472653702
8.599999999999985, 0.9433154541015625, 0.07900865478515624, -9.442731347656249, -3.6116488549618317, 0.9056259541984737, 0.8739312977099285, -0.473733499890135, 0.0877283372314453, 0.03503195869140896
8.699999999999985, 0.9792284790039062, -0.05985504150390625, -9.536105212402344, -0.5200458015267173, -0.6745267175572517, -1.156603053435111, -0.4378204749877913, -0.051135359057617194, -0.05834190605468592
8.799999999999985, 1.1755530151367186, -0.08140285644531249, -9.53131680908203, -0.22996946564885468, -1.3691832061068698, -0.08790076335877473, -0.2414959388549789, -0.07268317399902344, -0.053553502734372316
8.899999999999984, 1.0342951171875, 0.12449848632812499, -9.533711010742186, 0.8081984732824431, -0.4989541984732822, 1.2479770992366461, -0.3827538368041976, 0.13321816877441403, -0.05594770439452823
8.999999999999984, 0.9911994873046874, 0.1149216796875, -9.459490759277344, 0.30438167938931326, -0.5447557251908395, -0.7901908396946524, -0.42584946668701007, 0.12364136213378905, 0.018272547070314005
9.099999999999984, 1.0390835205078124, 0.09337386474609374, -9.409212524414063, -0.4360763358778623, 0.5392137404580155, -0.042099236641217175, -0.3779654334838851, 0.1020935471923828, 0.06855078193359532
9.199999999999983, 1.0821791503906248, 0.011971008300781249, -9.488221179199218, -1.0772977099236638, 0.897992366412214, 1.049503816793898, -0.33486980360107266, 0.0206906907470703, -0.010457872851560523
9.299999999999983, 0.9792284790039062, 0.033518823242187495, -9.4618849609375, -2.123099236641221, 0.12700000000000022, -0.5688167938931254, -0.4378204749877913, 0.04223850568847655, 0.01587834541015809
9.399999999999983, 1.0510545288085937, -0.0718260498046875, -9.375693701171874, -1.4666106870229005, 0.2186030534351147, -0.5993511450381632, -0.36599442518310377, -0.06310636735839845, 0.10206960517578345
9.499999999999982, 1.1109095703125, -0.08140285644531249, -9.65342109375, 0.09064122137404607, -0.002770992366411984, 0.5762213740458062, -0.30613938367919746, -0.07268317399902344, -0.17565778740234173
9.599999999999982, 0.8834604125976562, 0.023942016601562498, -9.49300958251953, 1.02957251908397, -1.6592595419847325, -0.5077480916030499, -0.5335885413940413, 0.03266169904785155, -0.015246276171872353
9.699999999999982, 1.0630255371093749, 0.143652099609375, -9.397241516113281, 0.4952213740458018, -1.5294885496183204, 0.8739312977099285, -0.35402341688232264, 0.15237178205566404, 0.08052179023437667
9.799999999999981, 1.0558429321289062, -0.033518823242187495, -9.509768994140625, 0.47232061068702313, -1.6439923664122134, 1.4311832061068746, -0.36120602186279127, -0.02479914079589844, -0.03200568779296731
9.89999999999998, 1.177947216796875, 0.06464344482421874, -9.516951599121093, 0.22041221374045827, -2.163076335877862, -0.5306488549618287, -0.23910173719482253, 0.0733631272705078, -0.03918829277343505
9.99999999999998, 1.2306196533203124, 0.06464344482421874, -9.502586389160156, -0.26050381679389284, -0.934068702290076, 0.942633587786263, -0.18642930067138508, 0.0733631272705078, -0.024823082812497788
10.09999999999998, 1.0797849487304687, -0.0383072265625, -9.545682019042967, -0.3063053435114501, -0.07147328244274784, -1.4314122137404546, -0.3372640052612288, -0.029587544116210944, -0.06791871269530958
10.19999999999998, 1.199495031738281, 0.040701428222656245, -9.366116894531249, -0.1383664122137402, 0.8216564885496187, -0.843625954198469, -0.2175539222534164, 0.0494211106689453, 0.11164641181640889
10.29999999999998, 0.9648632690429687, 0.0383072265625, -9.476250170898437, -0.2681374045801524, 1.2186030534351149, -0.6451526717557208, -0.4521856849487288, 0.04702690900878905, 0.001513135449220826
10.399999999999979, 1.180341418457031, -0.040701428222656245, -9.548076220703125, -1.2147022900763356, 1.363641221374046, 1.9044656488549663, -0.2367075355346664, -0.03198174577636719, -0.07031291435546727
10.499999999999979, 1.0486603271484374, 0.023942016601562498, -9.591171850585937, -0.8788244274809158, -0.1325419847328242, -1.0955343511450337, -0.3683886268432601, 0.03266169904785155, -0.11340854423827906
10.599999999999978, 1.1923124267578125, -0.08379705810546874, -9.629479077148437, -0.7108854961832058, -0.6745267175572517, -0.5077480916030499, -0.22473652723388504, -0.07507737565917968, -0.15171577080077903
10.699999999999978, 1.0726023437499999, 0.05746083984375, -9.382876306152344, -1.092564885496183, -0.34628244274809133, 1.2556106870229051, -0.34444661024169765, 0.06618052229003905, 0.09488700019531393
10.799999999999978, 0.9576806640625, 0.009576806640625, -9.358934289550781, -1.7719541984732823, 0.1499007633587789, -0.6375190839694618, -0.45936828992919754, 0.01829648908691405, 0.11882901679687663
10.899999999999977, 0.9816226806640624, -0.22026655273437498, -9.612719665527344, -0.6574503816793891, -1.1249083969465647, -1.6985877862595373, -0.43542627332763506, -0.21154687028808594, -0.13495635917968585
10.999999999999977, 1.1731588134765625, -0.1149216796875, -9.37808790283203, 2.258580152671756, -0.9111679389312974, 1.0113358778625994, -0.24389014051513502, -0.10620199724121095, 0.09967540351562754
11.099999999999977, 1.120486376953125, 0.05027823486328125, -9.399635717773437, 2.8463664122137406, -0.6745267175572517, 0.5762213740458062, -0.2965625770385725, 0.058997917309570304, 0.07812758857422075
11.199999999999976, 1.20667763671875, -0.1197100830078125, -9.397241516113281, 2.3959847328244277, -0.5829236641221371, -2.0268320610686983, -0.21037131727294756, -0.11099040056152344, 0.08052179023437667
11.299999999999976, 1.0965443603515623, 0.076614453125, -9.574412438964844, 0.9150687022900766, -1.399717557251908, 0.5838549618320652, -0.32050459364013517, 0.08533413557128905, -0.09664913261718588
11.399999999999975, 1.1324573852539062, -0.1149216796875, -9.368511096191405, 0.23567938931297738, -1.4073511450381677, 1.5304198473282487, -0.28459156873779135, -0.10620199724121095, 0.10925221015625297
11.499999999999975, 1.2210428466796874, 0.11252747802734374, -9.469067565917967, -0.4208091603053432, -0.7737633587786257, 0.9502671755725238, -0.19600610731201007, 0.12124716047363279, 0.008695740429690346
11.599999999999975, 1.0797849487304687, -0.11731588134765625, -9.600748657226562, -0.4437099236641219, -1.1936106870229004, 0.4922519083969501, -0.3372640052612288, -0.1085961989013672, -0.1229853508789045
11.699999999999974, 1.235408056640625, 0.14604630126953125, -9.504980590820312, -0.3597404580152669, -0.8271984732824424, 2.2174427480916066, -0.18164089735107258, 0.1547659837158203, -0.027217284472653702
11.799999999999974, 1.1755530151367186, 0.10295067138671875, -9.478644372558593, -0.6040152671755722, 0.4705114503816797, -2.0039312977099195, -0.2414959388549789, 0.1116703538330078, -0.0008810662109350886
11.899999999999974, 1.448492004394531, -0.06703764648437499, -9.514557397460937, 0.5028549618320614, 2.46287786259542, 0.8052290076335922, 0.03144305040283357, -0.05831796403808594, -0.03679409111327914
11.999999999999973, 1.1348515869140625, 0.011971008300781249, -9.397241516113281, 0.5791908396946567, 2.8903587786259544, 1.377748091603058, -0.282197367077635, 0.0206906907470703, 0.08052179023437667
12.099999999999973, 1.0702081420898437, 0.0909796630859375, -9.440337145996093, 0.38835114503816826, 1.8216564885496185, -0.9886641221374006, -0.3468408119018538, 0.09969934553222655, 0.037426160351564874
12.199999999999973, 1.120486376953125, 0.0430956298828125, -9.595960253906249, 1.2356793893129776, -0.5905572519083967, -1.7367557251908359, -0.2965625770385725, 0.051815312329101554, -0.11819694755859089
12.299999999999972, 1.2234370483398436, 0.05985504150390625, -9.60793126220703, 1.808198473282443, -0.36154961832061044, 2.7899618320610724, -0.19361190565185393, 0.0685747239501953, -0.13016795585937224
12.399999999999972, 1.235408056640625, 0.258573779296875, -9.452308154296874, 0.19751145038167972, -2.3157480916030533, 1.4617175572519123, -0.18164089735107258, 0.26729346174316404, 0.025455152050783525
12.499999999999972, 1.2569558715820313, 0.3184288208007812, -9.358934289550781, -1.2452366412213738, -0.9417022900763357, -1.9199618320610643, -0.16009308240966624, 0.3271485032470703, 0.11882901679687663
12.599999999999971, 1.24498486328125, -0.047884033203124995, -9.41639512939453, -1.4666106870229005, 0.36364122137404603, -1.5688167938931254, -0.1720640907104476, -0.03916435075683594, 0.06136817695312757
12.69999999999997, 1.2473790649414063, -0.033518823242187495, -9.411606726074218, 0.17461068702290106, -0.07147328244274784, 0.8052290076335922, -0.16966988905029123, -0.02479914079589844, 0.0661565802734394
12.79999999999997, 1.369483349609375, 0.13168109130859373, -9.509768994140625, 0.2662137404580156, 0.4857786259541987, 0.4082824427480958, -0.04756560438232249, 0.14040077375488277, -0.03200568779296731
12.89999999999997, 1.2856862915039062, 0.0383072265625, -9.430760339355468, 0.4646870229007637, -0.6439923664122135, -0.9352290076335841, -0.13136266248779127, 0.04702690900878905, 0.04700296699219031
12.99999999999997, 1.1923124267578125, 0.08140285644531249, -9.603142858886718, 1.1135419847328247, -1.6134580152671754, -0.393244274809156, -0.22473652723388504, 0.09012253889160154, -0.1253795525390604
13.09999999999997, 1.3168109130859373, 0.15562310791015624, -9.5001921875, 0.9685038167938934, -3.117274809160305, 1.16400763358779, -0.10023804090576016, 0.16434279035644528, -0.022428881152341873
13.199999999999969, 1.4700398193359374, 0.23702596435546874, -9.440337145996093, 0.7471297709923667, -0.5829236641221371, -1.3398091603053395, 0.05299086534423991, 0.24574564680175778, 0.037426160351564874
13.299999999999969, 1.3479355346679687, 0.10295067138671875, -9.440337145996093, -0.0009618320610684239, 1.149900763358779, 0.5762213740458062, -0.06911341932372883, 0.1116703538330078, 0.037426160351564874
13.399999999999968, 1.1037269653320312, 0.17956512451171874, -9.514557397460937, -0.375007633587786, 2.096465648854962, 0.9808015267175616, -0.3133219886596663, 0.18828480695800778, -0.03679409111327914
13.499999999999968, 1.2114660400390624, 0.1484405029296875, -9.45470235595703, -1.1154656488549617, 2.386541984732825, -0.3474427480915985, -0.20558291395263506, 0.15716018537597654, 0.02306095039062761
13.599999999999968, 1.2856862915039062, 0.07900865478515624, -9.648632690429688, -0.6269160305343509, 1.9437938931297714, -0.6298854961832028, -0.13136266248779127, 0.0877283372314453, -0.1708693840820299
13.699999999999967, 1.1516109985351561, 0.11731588134765625, -9.521740002441407, -0.8482900763358776, 0.5392137404580155, 0.02660305343511915, -0.26543795545654136, 0.1260355637939453, -0.04397669609374866
13.799999999999967, 1.1540052001953125, 0.086191259765625, -9.543287817382812, -0.7795877862595417, -0.45315267175572493, -1.614618320610683, -0.263043753796385, 0.09491094221191405, -0.06552451103515367
13.899999999999967, 1.2282254516601563, 0.047884033203124995, -9.49300958251953, -0.4360763358778623, -0.6821603053435112, -0.385610687022897, -0.18882350233154122, 0.05660371564941405, -0.015246276171872353
13.999999999999966, 1.2521674682617188, 0.04548983154296875, -9.449913952636718, -0.26050381679389284, 0.23387022900763382, 0.5609541984732864, -0.16488148572997874, 0.0542095139892578, 0.02784935371093944
14.099999999999966, 1.16837041015625, 0.01915361328125, -9.473855969238281, -0.0696641221374043, 0.23387022900763382, -0.6833206106870193, -0.24867854383544752, 0.02787329572753905, 0.003907337109376741
14.199999999999966, 1.0797849487304687, 0.0909796630859375, -9.636661682128906, -0.8330229007633585, 0.897992366412214, -0.049732824427476174, -0.3372640052612288, 0.09969934553222655, -0.15889837578124855
14.299999999999965, 1.1707646118164061, 0.12689268798828124, -9.543287817382812, -0.6498167938931295, 0.49341221374045824, -0.6833206106870193, -0.24628434217529138, 0.13561237043457028, -0.06552451103515367
14.399999999999965, 1.1731588134765625, -0.00718260498046875, -9.430760339355468, 0.35781679389313004, 0.7224198473282446, 0.606755725190844, -0.24389014051513502, 0.001537077465820302, 0.04700296699219031
14.499999999999964, 1.1444283935546875, 0.1149216796875, -9.464279162597656, 1.2356793893129776, -0.42261832061068677, -0.25583969465648515, -0.27262056043701, 0.12364136213378905, 0.013484143750002175
14.599999999999964, 1.1923124267578125, 0.13646949462890623, -9.447519750976562, 0.8005648854961834, -1.4073511450381677, -1.3703435114503772, -0.22473652723388504, 0.14518917707519527, 0.030243555371095354
14.699999999999964, 1.2761094848632812, 0.12689268798828124, -9.490615380859374, 0.3654503816793896, -0.36154961832061044, -0.5917175572519042, -0.14093946912841626, 0.13561237043457028, -0.012852074511716438
14.799999999999963, 1.2737152832031249, 0.1388636962890625, -9.452308154296874, -0.6040152671755722, -1.4760534351145036, -0.17950381679388983, -0.14333367078857262, 0.14758337873535154, 0.025455152050783525
14.899999999999963, 1.2904746948242187, 0.055066638183593745, -9.514557397460937, -1.0009618320610683, -0.36918320610687, -1.4924809160305301, -0.12657425916747878, 0.06378632062988279, -0.03679409111327914
14.999999999999963, 1.2928688964843749, 0.0, -9.548076220703125, -0.03912977099236614, -0.06383969465648831, -1.515381679389309, -0.12418005750732264, 0.008719682446289052, -0.07031291435546727
15.099999999999962, 1.3335703247070312, 0.1292868896484375, -9.651026892089844, 0.21277862595419872, -0.0409389312977097, 0.02660305343511915, -0.08347862928466632, 0.13800657209472653, -0.1732635857421858
15.199999999999962, 1.2306196533203124, 0.07422025146484375, -9.507374792480467, -0.0696641221374043, 0.004862595419847571, 0.2785114503816839, -0.18642930067138508, 0.0829399339111328, -0.029611486132809617
15.299999999999962, 1.3814543579101561, 0.1484405029296875, -9.440337145996093, -0.3444732824427478, -0.010404580152671483, -0.6298854961832028, -0.03559459608154136, 0.15716018537597654, 0.037426160351564874
15.399999999999961, 1.254561669921875, 0.0430956298828125, -9.466673364257812, -0.81012213740458, 0.9972290076335881, -0.5611832061068665, -0.1624872840698226, 0.051815312329101554, 0.01108994208984626
15.499999999999961, 1.2234370483398436, -0.00718260498046875, -9.351751684570312, 1.3959847328244277, 1.8445572519083973, -0.9581297709923629, -0.19361190565185393, 0.001537077465820302, 0.12601162177734615
15.59999999999996, 1.2521674682617188, 0.023942016601562498, -9.464279162597656, 1.2280458015267177, 1.3560076335877866, 0.17164122137404902, -0.16488148572997874, 0.03266169904785155, 0.013484143750002175
15.69999999999996, 1.1851298217773436, 0.13407529296874998, -9.469067565917967, 3.3807175572519084, 0.9972290076335881, 0.10293893129771448, -0.2319191322143539, 0.14279497541503902, 0.008695740429690346
15.79999999999996, 1.2114660400390624, 0.16041151123046873, -9.394847314453125, 0.12117557251908428, -0.19361068702290052, 1.1029389312977145, -0.20558291395263506, 0.16913119367675777, 0.08291599189453258
15.89999999999996, 1.1611878051757811, 0.10773907470703124, -9.526528405761718, -0.939893129770992, -1.6134580152671754, -1.622251908396942, -0.2558611488159164, 0.1164587571533203, -0.04876509941406049
15.99999999999996, 1.2042834350585936, -0.02154781494140625, -9.473855969238281, -1.0162290076335876, -1.7890305343511448, 0.14874045801527203, -0.21276551893310391, -0.012828132495117198, 0.003907337109376741
16.09999999999996, 1.2378022583007813, -0.1388636962890625, -9.466673364257812, -0.12309923664122108, -1.0638396946564883, -0.25583969465648515, -0.17924669569091622, -0.13014401384277346, 0.01108994208984626
16.19999999999996, 1.2832920898437499, 0.0526724365234375, -9.361328491210937, -0.12309923664122108, -0.20124427480916007, -0.1108015267175535, -0.13375686414794763, 0.06139211896972655, 0.11643481513672072
16.29999999999996, 1.43652099609375, 0.13407529296874998, -9.560047229003906, -0.7948549618320608, 1.4781450381679393, -2.2482061068702253, 0.019472042102052445, 0.14279497541503902, -0.08228392265624862
16.399999999999963, 1.2976572998046874, -0.02633621826171875, -9.528922607421874, -0.8864580152671753, 2.119366412213741, 0.927366412213745, -0.11939165418701014, -0.0176165358154297, -0.0511593010742164
16.499999999999964, 1.0103531005859374, 0.23223756103515625, -9.366116894531249, -0.45897709923664093, 0.6613511450381682, -2.3092748091603017, -0.4066958534057601, 0.2409572434814453, 0.11164641181640889
16.599999999999966, 1.2856862915039062, -0.04548983154296875, -9.481038574218749, -0.40554198473282416, 0.05066412213740484, 0.0800381679389357, -0.13136266248779127, -0.036770149096679694, -0.0032752678710910033
16.699999999999967, 1.120486376953125, -0.07422025146484375, -9.516951599121093, -0.12309923664122108, -1.934068702290076, -0.385610687022897, -0.2965625770385725, -0.0655005690185547, -0.03918829277343505
16.79999999999997, 1.2497732666015624, -0.08379705810546874, -9.459490759277344, 0.4494198473282446, -3.453152671755725, 3.186908396946569, -0.1672756873901351, -0.07507737565917968, 0.018272547070314005
16.89999999999997, 1.4006079711914061, 0.05985504150390625, -9.670180505371093, 0.3425496183206109, -4.132541984732824, 1.2327099236641264, -0.01644098280029138, 0.0685747239501953, -0.1924171990234349
16.99999999999997, 1.2521674682617188, 0.055066638183593745, -9.572018237304688, -0.5200458015267173, -1.1401755725190836, -2.8741603053435076, -0.16488148572997874, 0.06378632062988279, -0.09425493095702997
17.099999999999973, 1.4149731811523436, -0.0383072265625, -9.471461767578125, -0.8635572519083967, 0.5010458015267178, -0.5535496183206075, -0.0020757728393538954, -0.029587544116210944, 0.006301538769532655
17.199999999999974, 1.3551181396484375, 0.0526724365234375, -9.390058911132812, -1.2376030534351141, 1.6308167938931302, 1.4617175572519123, -0.06193081434325998, 0.06139211896972655, 0.08770439521484619
17.299999999999976, 1.2521674682617188, -0.1149216796875, -9.629479077148437, -1.0314961832061065, 0.11173282442748117, -0.46194656488549235, -0.16488148572997874, -0.10620199724121095, -0.15171577080077903
17.399999999999977, 1.3575123413085937, -0.13168109130859373, -9.562441430664062, 0.19751145038167972, 0.39417557251908425, 0.42354961832061555, -0.05953661268310384, -0.12296140886230468, -0.08467812431640453
17.49999999999998, 1.37906015625, -0.05027823486328125, -9.270348828125, -0.47424427480916004, 0.63081679389313, 1.7975954198473332, -0.0379887977416975, -0.041558552416992196, 0.2074144782226579
17.59999999999998, 0.5626373901367188, -0.38307226562499996, -9.509768994140625, -10.733786259541983, -1.9035343511450378, -1.4924809160305301, -0.8544115638549787, -0.3743525831787109, -0.03200568779296731
17.69999999999998, 1.4915876342773438, -0.3950432739257812, -9.382876306152344, -3.1307328244274806, -0.09437404580152647, -4.49248091603053, 0.07453868028564625, -0.38632359147949213, 0.09488700019531393
17.799999999999983, 1.35990654296875, -0.3758896606445312, -9.375693701171874, 3.0295725190839695, 7.646083969465649, -0.393244274809156, -0.05714241102294748, -0.36716997819824215, 0.10206960517578345
17.899999999999984, 0.8283937744140625, -0.40462008056640625, -9.406818322753905, 3.327282442748092, -3.949335877862595, 6.912099236641225, -0.588655179577635, -0.3959003981201172, 0.07094498359375301
17.999999999999986, 1.8100164550781248, -0.11731588134765625, -9.619902270507811, -1.1841679389312976, 9.127, -4.523015267175569, 0.3929675010864273, -0.1085961989013672, -0.1421389641601536
18.099999999999987, 0.7972691528320313, -0.3711012573242187, -9.888052856445311, 9.19751145038168, 32.317839694656485, 5.026603053435119, -0.6197798011596662, -0.36238157487792966, -0.41028955009765333
18.19999999999999, -0.2657563842773437, -0.02154781494140625, -9.947907897949218, 4.655526717557252, -22.964603053435113, -18.652786259541983, -1.6828053382690413, -0.012828132495117198, -0.4701445916015601
18.29999999999999, 1.2617442749023438, -0.4836287353515625, -8.47786807861328, -3.527679389312977, -27.414984732824426, 13.16400763358779, -0.15530467908935375, -0.4749090529052734, 0.9998952277343776
18.39999999999999, 2.133233679199219, 0.28012159423828126, -9.495403784179686, 2.609725190839695, -12.903534351145037, 1.3395801526717594, 0.7161847252075213, 0.2888412766845703, -0.017640477832028267
18.499999999999993, 1.1516109985351561, 0.0909796630859375, -10.096348400878906, -1.909358778625954, 9.981961832061069, -2.8894274809160265, -0.26543795545654136, 0.09969934553222655, -0.6185850945312481
18.599999999999994, 1.6160861206054686, -0.09337386474609374, -9.476250170898437, 4.884534351145039, 9.913259541984733, -1.935229007633584, 0.19903716661377113, -0.08465418229980469, 0.001513135449220826
18.699999999999996, 1.4341267944335936, 0.5051765502929687, -9.035717065429687, -9.542946564885495, 52.27967175572519, -3.057366412213736, 0.017077840441896086, 0.5138962327392578, 0.4420462409179713
18.799999999999997, -0.6679822631835937, -0.7134720947265625, -9.45470235595703, 5.1364427480916035, 11.569748091603055, 8.209809160305348, -2.085031217175291, -0.7047524122802734, 0.02306095039062761
18.9, 0.5602431884765625, 0.22026655273437498, -8.997409838867187, -4.229969465648854, -19.819564885496185, 4.171641221374049, -0.856805765515135, 0.22898623518066402, 0.48035346748047125
19.0, 0.4836287353515625, 0.04548983154296875, -8.961496813964843, 3.4112519083969466, -24.109641221374044, -1.523015267175568, -0.933420218640135, 0.0542095139892578, 0.5162664923828153
19.1, 1.3120225097656248, -0.181959326171875, -9.739612353515625, 2.3425496183206107, -6.8500992366412214, 1.156374045801531, -0.10502644422607266, -0.17323964372558595, -0.2618490471679671
19.200000000000003, 0.5219359619140624, 0.062249243164062495, -10.295067138671874, -2.6879847328244275, -2.7279618320610686, -0.7901908396946524, -0.8951129920776351, 0.07096892561035155, -0.8173038323242157
19.300000000000004, 1.6208745239257811, 0.16519991455078123, -9.622296472167967, -2.458977099236641, 7.97432824427481, -5.958129770992363, 0.20382556993408363, 0.17391959699707027, -0.1445331658203095
19.400000000000006, 0.2609679809570312, -0.15322890625, -9.76116016845703, 5.9150687022900765, 32.07356488549618, 3.16400763358779, -1.1560809730346664, -0.14450922380371095, -0.2833968621093721
19.500000000000007, -0.8188169677734375, 0.34715924072265625, -9.564835632324218, -2.8864580152671753, -20.124908396946566, -24.515381679389307, -2.235865921765135, 0.3558789231689453, -0.08707232597656045
19.60000000000001, 0.3184288208007812, -0.3327940307617187, -9.888052856445311, 2.1135419847328247, -26.903534351145037, 12.400648854961837, -1.0986201331909162, -0.32407434831542964, -0.41028955009765333
19.70000000000001, 0.8116343627929687, 0.4860229370117187, -9.102754711914063, 1.1669770992366417, -20.827198473282444, 3.4159160305343548, -0.6054145911987288, 0.4947426194580078, 0.375008594433595
19.80000000000001, 1.886630908203125, 0.36391865234375, -9.7683427734375, -0.5429465648854959, 2.8216564885496185, 0.8968320610687055, 0.46958195421142745, 0.37263833479003905, -0.2905794670898416
19.900000000000013, 1.3910311645507811, 0.07422025146484375, -9.670180505371093, 3.739496183206107, 3.554480916030535, -1.614618320610683, -0.026017789440916372, 0.0829399339111328, -0.1924171990234349
20.000000000000014, 1.956062756347656, 0.32561142578124996, -9.349357482910156, 2.6020916030534353, 18.417076335877862, 10.950267175572524, 0.5390138023559585, 0.33433110822753903, 0.12840582343750206
20.100000000000016, 0.70868369140625, 0.5626373901367188, -9.64623848876953, -9.145999999999999, 33.24150381679389, -6.377977099236637, -0.7083652625854475, 0.5713570725830078, -0.1684751824218722
20.200000000000017, -0.4429273071289062, -0.16759411621093748, -9.516951599121093, -2.0543969465648853, -24.65925954198473, 18.47698473282443, -1.8599762611206037, -0.15887443376464844, -0.03918829277343505
20.30000000000002, 0.40940848388671874, 0.2609679809570312, -9.6151138671875, 2.1822442748091606, -27.155442748091602, -13.362709923664118, -1.0076404701049788, 0.2696876634033203, -0.13735056083984176
20.40000000000002, 1.1156979736328125, -0.1580173095703125, -9.509768994140625, -3.81012213740458, -15.02567175572519, 1.9044656488549663, -0.30135098035888497, -0.14929762712402345, -0.03200568779296731
20.50000000000002, 1.2234370483398436, -0.3327940307617187, -10.16338604736328, 1.0372061068702294, 5.325473282442748, -0.4237786259541938, -0.19361190565185393, -0.32407434831542964, -0.6856227410156226
20.600000000000023, 1.2042834350585936, 0.15083470458984374, -9.72285294189453, -2.4818778625954194, -0.9417022900763357, 5.194541984732828, -0.21276551893310391, 0.15955438703613278, -0.24508963554687213
20.700000000000024, 1.5945383056640625, -0.5698199951171875, -8.757989672851561, 7.647893129770993, 40.79875572519084, -0.3321755725190805, 0.17748935167236501, -0.5611003126708984, 0.7197736334960965
20.800000000000026, -0.19632453613281248, 0.08140285644531249, -9.835380419921874, -2.6498167938931294, 18.012496183206107, -0.5611832061068665, -1.61337349012451, 0.09012253889160154, -0.3576171135742161
20.900000000000027, 0.7637503295898437, -0.4740519287109375, -9.318232861328125, 6.869267175572519, -24.399717557251908, -3.484847328244271, -0.6532986244018538, -0.4653322462646484, 0.1595304450195325
21.00000000000003, 1.3934253662109375, -0.06464344482421874, -8.949525805664061, -1.81012213740458, -22.285213740458016, 18.912099236641225, -0.023623587780760014, -0.05592376237792969, 0.5282375006835967
21.10000000000003, 1.6424223388671875, 0.4908113403320312, -9.622296472167967, 2.044839694656489, -12.376816793893129, -4.316908396946561, 0.22537338487548997, 0.4995310227783203, -0.1445331658203095
21.20000000000003, 0.44053310546874996, -0.0047884033203125, -10.232817895507813, 1.0143053435114506, -1.9722366412213737, -1.6375190839694618, -0.9765158485229475, 0.003931279125976552, -0.7550545891601548
21.300000000000033, 1.6352397338867186, -0.181959326171875, -9.358934289550781, 5.205145038167939, 2.7224198473282444, 7.217442748091607, 0.21819077989502111, -0.17323964372558595, 0.11882901679687663
21.400000000000034, 0.9074024291992187, 0.35673604736328124, -9.995791931152343, -8.710885496183206, 40.004862595419844, -1.4772137404580103, -0.5096465247924788, 0.3654557298095703, -0.5180286248046855
21.500000000000036, -0.5865794067382812, -0.507570751953125, -9.536105212402344, 8.35781679389313, 1.6384503816793896, 12.492251908396952, -2.0036283607299787, -0.4988510695068359, -0.05834190605468592
21.600000000000037, 0.9792284790039062, 0.4908113403320312, -9.18655177001953, -7.344473282442748, -26.39208396946565, -5.187137404580149, -0.4378204749877913, 0.4995310227783203, 0.29121153632812735
21.70000000000004, 1.8100164550781248, 0.00718260498046875, -9.045293872070312, 0.1669770992366415, -19.49895419847328, -5.416145038167935, 0.3929675010864273, 0.015902287426757804, 0.43246943427734585
21.80000000000004, 1.5825672973632812, -0.42377369384765623, -9.562441430664062, -1.7032519083969464, 4.577381679389314, 3.50751908396947, 0.16551834337158366, -0.41505401140136716, -0.08467812431640453
21.90000000000004, 1.2665326782226562, 0.06943184814453125, -9.840168823242188, -3.1307328244274806, 2.0124961832061072, 7.774694656488553, -0.15051627576904125, 0.0781515305908203, -0.3624055168945297
22.000000000000043, 2.0877438476562498, 0.1484405029296875, -9.105148913574219, -2.0162290076335876, 7.272038167938931, -12.774923664122134, 0.6706948936645523, 0.15716018537597654, 0.3726143927734391
22.100000000000044, 0.7254431030273437, -0.316034619140625, -9.706093530273437, 7.953236641221374, 37.26440458015267, 5.82049618320611, -0.6916058509643538, -0.3073149366943359, -0.22833022392577895
22.200000000000045, -1.0342951171875, 0.4525041137695312, -9.995791931152343, 0.5486564885496187, -14.498954198473282, -15.981030534351142, -2.4513440711791974, 0.46122379621582027, -0.5180286248046855
22.300000000000047, 1.0103531005859374, -0.3280056274414062, -9.866505041503906, 1.7471297709923665, -29.5523893129771, 11.446450381679394, -0.4066958534057601, -0.31928594499511714, -0.3887417351562483
22.40000000000005, 1.197100830078125, 0.44053310546874996, -9.277531433105468, 1.69369465648855, -23.20887786259542, 2.50751908396947, -0.21994812391357255, 0.44925278791503903, 0.20023187324219016
22.50000000000005, 2.3511060302734372, 0.0383072265625, -9.727641345214844, -4.871190839694656, 8.859824427480916, 7.751793893129776, 0.9340570762817397, 0.04702690900878905, -0.24987803886718574
22.60000000000005, 2.0159177978515626, 0.031124621582031248, -9.698910925292969, 2.9303358778625954, 2.8903587786259544, -4.545916030534347, 0.598868843859865, 0.0398443040283203, -0.2211476189453112
22.700000000000053, 2.24097275390625, 0.3447650390625, -9.354145886230468, -6.3139389312977094, 38.997229007633585, 6.568587786259545, 0.8239237999145526, 0.35348472150878907, 0.12361742011719024
22.800000000000054, -0.05746083984375, -0.047884033203124995, -9.392453112792968, -2.932259541984733, 29.50104580152672, -1.614618320610683, -1.4745097938354474, -0.03916435075683594, 0.08531019355469027
22.900000000000055, 0.28969840087890625, 0.6871358764648438, -9.026140258789061, -5.497145038167939, -21.956969465648854, 9.698358778625959, -1.1273505531127912, 0.6958555589111328, 0.4516230475585967
23.000000000000057, 0.7924807495117187, 0.3495534423828125, -9.04050546875, 3.4875877862595424, -30.70506106870229, -20.83599236641221, -0.6245682044799789, 0.35827312482910156, 0.4372578375976577
23.10000000000006, 1.9105729248046874, -0.565031591796875, -9.567229833984374, -1.405541984732824, -10.689793893129771, 5.789961832061072, 0.49352397081298993, -0.5563119093505859, -0.08946652763671636
23.20000000000006, 0.9696516723632812, -0.12210428466796874, -10.096348400878906, 0.5486564885496187, 3.9208931297709926, 1.8815648854961875, -0.4473972816284163, -0.11338460222167969, -0.6185850945312481
23.30000000000006, 1.177947216796875, 0.13407529296874998, -9.363722692871093, -1.4131755725190835, -1.399717557251908, -1.3245419847328197, -0.23910173719482253, 0.14279497541503902, 0.1140406134765648
23.400000000000063, 2.1739351074218747, -0.9409212524414062, -9.090783703613281, 8.556290076335879, 39.562114503816794, 6.889198473282448, 0.7568861534301772, -0.9322015699951172, 0.38697960273437637
23.500000000000064, -0.21068974609375, 0.430956298828125, -9.758765966796874, 0.3959847328244278, 18.043030534351146, 5.744160305343515, -1.6277387000854475, 0.43967598127441404, -0.2810026604492162
23.600000000000065, 0.488417138671875, -0.22744915771484372, -9.179369165039063, 9.487587786259542, -22.911167938931296, 0.3548473282442792, -0.9286318153198225, -0.21872947526855469, 0.2983941413085951
23.700000000000067, 1.3024457031249999, 0.4860229370117187, -9.042899670410156, -2.8330229007633587, -16.422618320610688, 19.85103053435115, -0.11460325086669765, 0.4947426194580078, 0.43486363593750177
23.800000000000068, 0.7134720947265625, 0.8954314208984374, -8.916006982421875, 2.6020916030534353, -13.185977099236641, -15.477213740458012, -0.703576859265135, 0.9041511033447265, 0.561756323925783
23.90000000000007, 1.3646949462890625, -0.32561142578124996, -9.792284790039062, 0.32728244274809193, -1.0485725190839692, 3.255610687022905, -0.052354007702634986, -0.3168917433349609, -0.3145214836914043
24.00000000000007, 2.0733786376953125, 0.15322890625, -9.478644372558593, 5.006671755725191, 13.78348854961832, 14.48461832061069, 0.656329683703615, 0.16194858869628903, -0.0008810662109350886
24.100000000000072, 1.3958195678710936, 0.5099649536132812, -9.473855969238281, -11.031496183206105, 42.30257251908397, -10.919961832061064, -0.021229386120603877, 0.5186846360595703, 0.003907337109376741
24.200000000000074, -1.35990654296875, -0.5626373901367188, -9.751583361816406, 2.3654503816793895, -8.315748091603053, 6.6372900763358835, -2.7769554969604475, -0.5539177076904297, -0.27382005546874844
24.300000000000075, 0.2442085693359375, 0.10295067138671875, -9.035717065429687, -6.321572519083969, -22.140175572519084, 4.400648854961837, -1.17284038465576, 0.1116703538330078, 0.4420462409179713
24.400000000000077, 1.6304513305664061, 0.5578489868164063, -9.22485899658203, -1.1230992366412211, -18.758496183206105, -2.1031679389312936, 0.21340237657470862, 0.5665686692626953, 0.2529043097656274
24.500000000000078, 1.7741034301757812, -0.05027823486328125, -9.619902270507811, -1.2528702290076335, 3.989595419847329, -15.965763358778622, 0.3570544761840837, -0.041558552416992196, -0.1421389641601536
24.60000000000008, 1.5682020874023437, -0.3950432739257812, -9.610325463867188, -3.9856946564885494, 3.4247099236641225, 9.698358778625959, 0.15115313341064618, -0.38632359147949213, -0.13256215751952993
24.70000000000008, 2.094926452636719, 0.37828386230468747, -9.430760339355468, -0.5658473282442745, 12.523946564885497, -4.851259541984729, 0.6778774986450213, 0.38700354475097654, 0.04700296699219031
24.800000000000082, 0.8810662109374999, -0.1388636962890625, -9.660603698730467, 2.51812213740458, 31.371274809160305, 0.1869083969465688, -0.5359827430541976, -0.13014401384277346, -0.18284039238280947
24.900000000000084, -0.1292868896484375, -0.2705447875976562, -9.911994873046874, 2.0143053435114506, -22.102007633587785, -21.408511450381674, -1.546335843640135, -0.26182510515136714, -0.43423156669921603
25.000000000000085, 1.9009961181640624, -0.19153613281249998, -9.212887988281249, 0.9227022900763361, -29.422618320610688, 19.6525572519084, 0.48394716417236494, -0.18281645036621094, 0.26487531806640874
25.100000000000087, 1.4317325927734375, 0.63206923828125, -9.466673364257812, 1.6173587786259542, -18.91880152671756, -2.1031679389312936, 0.01468363878173995, 0.640788920727539, 0.01108994208984626
25.200000000000088, 1.7286135986328124, 0.086191259765625, -9.567229833984374, -5.039129770992366, 4.4857786259541985, -1.5001145038167891, 0.3115646446411149, 0.09491094221191405, -0.08946652763671636
25.30000000000009, 1.1085153686523437, 0.016759411621093748, -9.708487731933593, 3.968503816793893, -1.7966641221374042, -1.5611832061068665, -0.3085335853393538, 0.0254790940673828, -0.23072442558593487
25.40000000000009, 2.8514941772460936, 0.7541735229492187, -9.042899670410156, -2.069664122137404, 34.08119847328244, 11.072404580152675, 1.434445223254396, 0.7628932053955078, 0.43486363593750177
25.500000000000092, 0.5195417602539062, 0.28490999755859375, -9.60793126220703, -3.8864580152671753, 27.92852671755725, -8.32454198473282, -0.8975071937377913, 0.2936296800048828, -0.13016795585937224
25.600000000000094, 0.3591302490234375, 0.239420166015625, -8.920795385742187, -5.81012213740458, -24.682160305343512, 7.049503816793898, -1.0579187049682601, 0.24813984846191403, 0.5569679206054712
25.700000000000095, 1.455674609375, 0.6679822631835937, -8.89924757080078, 5.739496183206107, -30.605824427480915, -19.736755725190836, 0.038625655383302426, 0.6767019456298827, 0.578515735546878
25.800000000000097, 1.5203180541992187, -0.11013327636718749, -9.054870678710937, 0.5639236641221378, -17.636358778625954, 5.194541984732828, 0.10326910020752122, -0.10141359392089844, 0.4228926276367204
25.900000000000098, 1.2641384765625, -0.02154781494140625, -10.16338604736328, -0.8940916030534348, -4.506587786259542, 0.7212595419847361, -0.1529104774291976, -0.012828132495117198, -0.6856227410156226
26.0000000000001, 1.7381904052734374, 0.13646949462890623, -9.370905297851563, -2.5887480916030534, 1.4628778625954202, -1.614618320610683, 0.3211414512817399, 0.14518917707519527, 0.10685800849609528
26.1000000000001, 1.3024457031249999, -0.22744915771484372, -9.414000927734374, 8.457053435114505, 45.19570229007633, 7.316679389312981, -0.11460325086669765, -0.21872947526855469, 0.06376237861328349
26.200000000000102, -1.1611878051757811, 0.5578489868164063, -9.782707983398437, -6.6345496183206105, 10.340740458015267, -11.919961832061064, -2.5782367591674786, 0.5665686692626953, -0.3049446770507789
26.300000000000104, 0.7565677246093749, -0.3136404174804687, -8.927977990722656, 7.579190839694657, -18.88063358778626, 0.9731679389313026, -0.6604812293823226, -0.30492073503417966, 0.5497853156250017
26.400000000000105, 0.8499415893554687, 0.23223756103515625, -9.083601098632812, -0.7566870229007631, -21.16307633587786, 6.965534351145042, -0.5671073646362288, 0.2409572434814453, 0.3941622077148459
26.500000000000107, 2.1787235107421874, 0.38307226562499996, -9.229647399902344, -0.19180152671755696, 1.0964656488549622, -2.6604198473282406, 0.7616745567504899, 0.39179194807128903, 0.24811590644531378
26.600000000000108, 1.254561669921875, -0.11252747802734374, -9.727641345214844, 1.7852977099236642, 0.6079160305343514, -4.752022900763355, -0.1624872840698226, -0.10380779558105468, -0.24987803886718574
26.70000000000011, 1.2378022583007813, -0.17477672119140625, -9.576806640625, 3.3349160305343513, 3.6766183206106873, 9.13347328244275, -0.17924669569091622, -0.1660570387451172, -0.0990433342773418
26.80000000000011, 0.6823474731445313, 0.07900865478515624, -9.272743029785156, -10.710885496183206, 38.76058778625954, -4.469580152671751, -0.7347014808471662, 0.0877283372314453, 0.205020276562502
26.900000000000112, -0.4165910888671875, -0.5722141967773438, -9.619902270507811, 3.1135419847328247, -12.170709923664122, 14.125839694656491, -1.833640042858885, -0.5634945143310547, -0.1421389641601536
27.000000000000114, 0.469263525390625, 0.3687070556640625, -9.356540087890625, -1.5582137404580152, -27.086740458015267, -8.019198473282438, -0.9477854286010725, 0.37742673811035155, 0.12122321845703254
27.100000000000115, 1.4413093994140624, -0.11013327636718749, -9.172186560058593, -3.6192824427480916, -16.987503816793893, -1.2176717557251866, 0.02426044542236494, -0.10141359392089844, 0.3055767462890646
27.200000000000117, 1.8004396484374998, -0.3064578125, -9.916783276367187, 0.3501832061068705, 14.722419847328245, -6.377977099236637, 0.3833906944458023, -0.2977381300537109, -0.43901997001952964
27.300000000000118, 1.879448303222656, -0.03591302490234375, -9.519345800781249, -3.4437099236641218, 9.981961832061069, 4.797595419847333, 0.4623993492309586, -0.027193342456054696, -0.041582494433590966
27.40000000000012, 2.039859814453125, 0.20829554443359374, -9.550470422363281, 3.1746106870229007, 34.07356488549618, -8.110801526717554, 0.6228108604614273, 0.21701522687988278, -0.07270711601562319
27.50000000000012, 0.17956512451171874, -0.028730419921875, -9.81862100830078, 2.8998015267175576, 31.363641221374046, 7.782328244274812, -1.2374838294799788, -0.020010737475585946, -0.3408577019531229
27.600000000000122, 0.0430956298828125, -0.15083470458984374, -9.042899670410156, 5.968503816793893, -21.308114503816793, -13.126068702290073, -1.373953324108885, -0.1421150221435547, 0.43486363593750177
27.700000000000124, 0.689530078125, -0.2537853759765625, -8.492233288574218, -2.672717557251908, -29.04093893129771, 18.49988549618321, -0.7275188758666975, -0.24506569353027344, 0.9855300177734403
27.800000000000125, 1.2928688964843749, 0.6296750366210937, -9.368511096191405, 2.69369465648855, -18.39208396946565, -5.370343511450377, -0.12418005750732264, 0.6383947190673828, 0.10925221015625297
27.900000000000126, 1.218648645019531, 0.023942016601562498, -10.261548315429687, -2.909358778625954, 2.417076335877863, -2.7596564885496147, -0.19840030897216643, 0.03266169904785155, -0.7837850090820293
28.000000000000128, 1.2952630981445312, -0.3016694091796875, -9.672574707031249, 3.090641221374046, -2.0562061068702286, -4.011564885496179, -0.12178585584716628, -0.2929497267333984, -0.19481140068359082
28.10000000000013, 2.35589443359375, 0.6416460449218749, -9.246406811523437, -8.512412213740458, 40.623183206106866, 3.721259541984736, 0.9388454796020524, 0.650365727368164, 0.2313564948242206
28.20000000000013, 0.277727392578125, -0.4429273071289062, -10.244788903808594, 0.09064122137404607, 17.11173282442748, -2.515381679389309, -1.1393215614135725, -0.43420762468261714, -0.7670255974609361
28.300000000000132, -0.11013327636718749, 0.062249243164062495, -8.951920007324219, -7.222335877862595, -18.124908396946566, 0.5914885496183242, -1.527182230358885, 0.07096892561035155, 0.525843299023439
28.400000000000134, 1.4891934326171874, -0.201112939453125, -9.119514123535156, 2.8616335877862595, -23.117274809160303, -18.05736641221374, 0.0721444786254899, -0.19239325700683596, 0.35824918281250184
28.500000000000135, 1.879448303222656, -0.5147533569335937, -9.485826977539062, 0.3654503816793896, -1.2775801526717554, 10.31667938931298, 0.4623993492309586, -0.5060336744873046, -0.008063671191404609
28.600000000000136, 1.1228805786132812, 0.1388636962890625, -10.230423693847655, -0.41317557251908366, 4.974328244274809, 4.255610687022905, -0.29416837537841634, 0.14758337873535154, -0.7526603874999971
28.700000000000138, 0.9241618408203125, 0.28012159423828126, -9.639055883789062, -2.8711908396946564, 11.294938931297711, -10.026832061068697, -0.492887113171385, 0.2888412766845703, -0.16129257744140446
28.80000000000014, 0.2920926025390625, -0.4572925170898437, -9.564835632324218, 6.037206106870229, 42.74532061068702, 5.171641221374049, -1.124956351452635, -0.44857283464355463, -0.08707232597656045
28.90000000000014, -0.5219359619140624, 0.7350199096679687, -9.962273107910155, -6.840656488549618, -6.727961832061069, -14.416145038167935, -1.93898491590576, 0.7437395921142578, -0.48450980156249734
29.000000000000142, 0.6105214233398437, -0.6081272216796875, -8.705317236328124, 3.9303358778625954, -26.147809160305343, 11.461717557251912, -0.8065275306518538, -0.5994075392333984, 0.7724460700195337
29.100000000000144, 0.8547299926757812, 0.22505495605468748, -9.239224206542968, 2.739496183206107, -25.437885496183206, 5.721259541984736, -0.5623189613159163, 0.23377463850097652, 0.23853909980469012
29.200000000000145, 1.8171990600585937, 0.19393033447265623, -9.536105212402344, -1.64218320610687, -0.08674045801526692, -1.7443893129770949, 0.40015010606689616, 0.20265001691894527, -0.05834190605468592
29.300000000000146, 0.6392518432617187, -0.06703764648437499, -9.751583361816406, 3.724229007633588, -5.613458015267176, -5.072633587786256, -0.7777971107299788, -0.05831796403808594, -0.27382005546874844
29.400000000000148, 2.1739351074218747, 0.25139117431640623, -9.081206896972656, -1.0696641221374041, 28.439977099236643, 5.82049618320611, 0.7568861534301772, 0.2601108567626953, 0.3965564093750018
29.50000000000015, 0.0526724365234375, 0.0430956298828125, -9.86411083984375, -3.123099236641221, 26.14226717557252, -3.286374045801523, -1.36437651746826, 0.051815312329101554, -0.3863475334960924
29.60000000000015, -0.19871873779296872, 0.45010991210937495, -9.299079248046874, -2.1841679389312976, -27.07147328244275, 11.789961832061074, -1.6157676917846662, 0.458829594555664, 0.17868405830078338
29.700000000000152, 0.04548983154296875, 0.7134720947265625, -8.63109698486328, 6.9150687022900765, -37.323381679389314, -16.851259541984728, -1.3715591224487287, 0.7221917771728515, 0.8466663214843777
29.800000000000153, 1.8650830932617186, -0.4070142822265625, -9.943119494628906, 0.32728244274809193, -13.17834351145038, 4.560954198473286, 0.4480341392700211, -0.39829459978027343, -0.46535618828124825
29.900000000000155, 1.6519991455078125, 0.00718260498046875, -10.002974536132811, 0.8081984732824431, 6.943793893129771, 1.599122137404585, 0.23495019151611496, 0.015902287426757804, -0.5252112297851532
30.000000000000156, 1.7573440185546874, 0.21787235107421873, -9.287108239746093, -2.1307328244274806, 7.1422671755725196, -0.17187022900762905, 0.34029506456298986, 0.22659203352050777, 0.19065506660156473
30.100000000000158, 1.458068811035156, -0.24899697265624998, -9.572018237304688, 8.03720610687023, 44.97432824427481, 5.1029389312977145, 0.04101985704345856, -0.24027729020996094, -0.09425493095702997
30.20000000000016, -0.55545478515625, 0.612915625, -9.610325463867188, -5.733786259541985, 6.760587786259542, -8.003931297709919, -1.9725037391479474, 0.621635307446289, -0.13256215751952993
30.30000000000016, 0.6943184814453125, -0.25139117431640623, -8.951920007324219, 9.266213740458017, -27.68979389312977, 1.171641221374049, -0.722730472546385, -0.2426714918701172, 0.525843299023439
30.400000000000162, 1.2473790649414063, 0.47884033203125, -8.916006982421875, -0.9551603053435112, -25.85773282442748, 8.98080152671756, -0.16966988905029123, 0.48756001447753905, 0.561756323925783
30.500000000000163, 2.1715409057617188, 0.5027823486328125, -9.265560424804686, -0.6727175572519081, -3.995137404580152, -5.8817938931297675, 0.7544919517700213, 0.5115020310791015, 0.2122028815429715
30.600000000000165, 1.5682020874023437, -0.086191259765625, -9.655815295410155, -0.1612671755725188, -2.117274809160305, -5.271106870229003, 0.15115313341064618, -0.07747157731933595, -0.17805198906249764
30.700000000000166, 1.4772224243164063, 0.11252747802734374, -9.701305126953125, 1.35781679389313, 4.096465648854962, 4.85103053435115, 0.06017347032470877, 0.12124716047363279, -0.22354182060546712
30.800000000000168, 0.6943184814453125, -0.031124621582031248, -10.192116467285155, -11.878824427480914, 36.562114503816794, -1.3474427480915985, -0.722730472546385, -0.022404939135742194, -0.7143531609374971
30.90000000000017, -0.3184288208007812, -0.6727706665039062, -9.488221179199218, 0.02957251908396974, -8.895900763358778, 16.553320610687027, -1.7354777747924788, -0.6640509840576171, -0.010457872851560523
31.00000000000017, 0.5626373901367188, 0.44532150878906246, -9.45470235595703, -2.932259541984733, -22.88826717557252, -14.064999999999996, -0.8544115638549787, 0.4540411912353515, 0.02306095039062761
31.100000000000172, 1.2593500732421874, -0.6177040283203125, -9.512163195800781, -3.7490534351145035, -16.483687022900764, 1.7517938931297756, -0.1576988807495101, -0.6089843458740234, -0.03439988945312322
31.200000000000173, 2.020706201171875, -0.1867477294921875, -9.718064538574218, 2.4341526717557254, 1.5086793893129773, 0.2708778625954231, 0.6036572471801773, -0.17802804704589845, -0.2403012322265603
31.300000000000175, 0.7589619262695312, -0.22266075439453123, -9.931148486328125, -2.237603053435114, 0.9743282442748094, 5.064770992366416, -0.6580870277221663, -0.2139410719482422, -0.4533851799804669
31.400000000000176, 1.484405029296875, -0.00239420166015625, -9.270348828125, -0.6498167938931295, 21.913259541984733, -11.003931297709919, 0.0673560753051774, 0.006325480786132803, 0.2074144782226579
31.500000000000178, 0.12449848632812499, -0.11252747802734374, -9.789890588378906, 6.434152671755726, 33.508679389312974, 8.606755725190844, -1.2925504676635726, -0.10380779558105468, -0.3121272820312484
31.60000000000018, -0.9720458740234375, -0.29448680419921874, -9.275137231445312, 0.2662137404580156, -28.964603053435113, -21.84362595419847, -2.3890948280151347, -0.2857671217529297, 0.20262607490234608
31.70000000000018, 0.5985504150390625, -0.6464344482421874, -9.710881933593749, 2.7013282442748094, -30.590557251908397, 16.705992366412218, -0.818498538952635, -0.6377147657958984, -0.23311862724609078
31.800000000000182, 1.3407529296874998, 0.5123591552734374, -9.466673364257812, 2.541022900763359, -17.5523893129771, -6.156603053435111, -0.07629602430419768, 0.5210788377197265, 0.01108994208984626
31.900000000000183, 1.5275006591796874, 0.258573779296875, -10.041281762695311, -3.48187786259542, 12.104099236641222, -0.1184351145038125, 0.11045170518798986, 0.26729346174316404, -0.5635184563476532
32.000000000000185, 1.3575123413085937, -0.27293898925781246, -9.564835632324218, 5.281480916030534, 2.96669465648855, -8.813091603053431, -0.05953661268310384, -0.2642193068115234, -0.08707232597656045
32.100000000000186, 1.944091748046875, 0.0143652099609375, -9.279925634765624, -7.512412213740458, 35.85219083969465, 6.6830916030534375, 0.5270427940551774, 0.023084892407226554, 0.19783767158203425
32.20000000000019, -0.0430956298828125, 0.21068974609375, -9.258377819824219, -3.3826412213740458, 25.172801526717556, -3.523015267175569, -1.46014458387451, 0.21940942854003903, 0.21938548652343925
32.30000000000019, -0.14604630126953125, 0.23702596435546874, -8.8872765625, -7.451343511450381, -22.262312977099235, 7.553320610687027, -1.5630952552612287, 0.24574564680175778, 0.5904867438476575
32.40000000000019, 0.8116343627929687, -0.105344873046875, -8.82981572265625, 3.121175572519084, -34.048572519083976, -20.210038167938926, -0.6054145911987288, -0.09662519060058594, 0.6479475836914084
32.50000000000019, 1.7357962036132812, -0.6655880615234374, -9.270348828125, 1.3501832061068706, -7.888267175572519, 4.209809160305348, 0.31874724962158374, -0.6568683790771483, 0.2074144782226579
32.60000000000019, 1.0295067138671874, -0.19393033447265623, -10.443507641601562, 1.8463664122137406, 0.8216564885496187, 6.751793893129776, -0.3875422401245101, -0.1852106520263672, -0.9657443352539037
32.700000000000195, 1.1923124267578125, 0.0, -9.507374792480467, 0.5104885496183208, 2.2262366412213743, -0.0115648854961794, -0.22473652723388504, 0.008719682446289052, -0.029611486132809617
32.800000000000196, 1.6256629272460936, -0.16519991455078123, -9.85692823486328, 11.388351145038168, 40.188068702290074, 5.797595419847333, 0.20861397325439612, -0.1564802321044922, -0.3791649285156229
32.9000000000002, -0.2753331909179687, 0.7134720947265625, -10.682927807617187, -4.443709923664121, -5.941702290076336, -13.103167938931293, -1.6923821449096663, 0.7221917771728515, -1.205164501269529
33.0000000000002, 1.4341267944335936, -0.7398083129882812, -8.836998327636719, 3.02193893129771, -22.292847328244275, 13.16400763358779, 0.017077840441896086, -0.7310886305419921, 0.6407649787109388
33.1000000000002, 0.7637503295898437, 0.22744915771484372, -9.311050256347656, 1.6707938931297712, -27.873, 1.9197328244274843, -0.6532986244018538, 0.23616884016113276, 0.16671305000000203
33.2000000000002, 2.250549560546875, 0.1005564697265625, -9.612719665527344, -4.901725190839694, 7.699519083969466, 3.606755725190844, 0.8335006065551775, 0.10927615217285155, -0.13495635917968585
33.3000000000002, 1.2138602416992186, -0.055066638183593745, -9.935936889648437, 2.823465648854962, 2.386541984732825, -12.629885496183203, -0.20318871229247892, -0.04634695573730469, -0.45817358330077873
33.400000000000205, 2.061407629394531, 0.40222587890625, -9.421183532714844, -8.420809160305343, 38.98196183206107, 5.385381679389317, 0.6443586754028336, 0.41094556135253907, 0.05657977363281397
33.500000000000206, -0.09576806640624999, 0.06943184814453125, -9.512163195800781, -5.168900763358779, 31.60791603053435, -2.8894274809160265, -1.5128170203979474, 0.0781515305908203, -0.03439988945312322
33.60000000000021, 0.45010991210937495, 0.06703764648437499, -8.743624462890624, -8.924625954198472, -14.918801526717557, 3.9044656488549663, -0.9669390418823225, 0.07575732893066404, 0.7341388434570337
33.70000000000021, 0.5746083984375, -0.05985504150390625, -8.729259252929687, 0.6936946564885499, -23.39208396946565, -10.271106870229003, -0.8424405555541975, -0.051135359057617194, 0.748504053417971
33.80000000000021, 1.369483349609375, -0.55545478515625, -9.682151513671874, -0.3597404580152669, -5.491320610687023, -0.049732824427476174, -0.04756560438232249, -0.546735102709961, -0.20438820732421625
33.90000000000021, 0.737414111328125, -0.21068974609375, -10.1131078125, -1.4818778625954194, 2.7758549618320614, 3.721259541984736, -0.6796348426635725, -0.20197006364746095, -0.6353445061523413
34.00000000000021, 1.6256629272460936, -0.23223756103515625, -9.507374792480467, -0.558213740458015, 18.516312977099236, -4.400877862595416, 0.20861397325439612, -0.2235178785888672, -0.029611486132809617
34.100000000000215, -0.17956512451171874, -0.28490999755859375, -9.600748657226562, 4.388351145038168, 32.004862595419844, 1.9884351145038206, -1.5966140785034162, -0.2761903151123047, -0.1229853508789045
34.200000000000216, -0.7517793212890624, -0.4261678955078125, -9.64623848876953, 4.464687022900764, -23.49895419847328, -20.072633587786257, -2.16882827528076, -0.4174482130615234, -0.1684751824218722
34.30000000000022, 0.6057330200195312, -0.35194764404296874, -8.987833032226561, -6.176534351145038, -26.66689312977099, 12.805229007633592, -0.8113159339721663, -0.3432279615966797, 0.4899302741210967
34.40000000000022, 0.833182177734375, 0.0526724365234375, -9.337386474609374, 2.121175572519084, -24.911167938931296, -8.6680534351145, -0.5838667762573225, 0.06139211896972655, 0.14037683173828341
34.50000000000022, 1.6831237670898436, -0.39743747558593745, -9.708487731933593, -3.7566870229007634, 2.4247099236641225, 0.2632442748091641, 0.26607481309814607, -0.3887177931396484, -0.23072442558593487
34.60000000000022, 1.139639990234375, -0.46208092041015625, -9.390058911132812, 2.4646870229007636, -3.300480916030534, 4.087671755725195, -0.2774089637573225, -0.4533612379638672, 0.08770439521484619
34.70000000000022, 0.7350199096679687, 0.8930372192382812, -9.358934289550781, -10.97042748091603, 49.691885496183204, -10.210038167938928, -0.6820290443237288, 0.9017569016845702, 0.11882901679687663
34.800000000000225, -0.5722141967773438, -0.7852981445312499, -9.081206896972656, -2.390274809160305, 13.508679389312977, 4.83576335877863, -1.9892631507690413, -0.7765784620849608, 0.3965564093750018
34.900000000000226, 0.2154781494140625, 0.201112939453125, -9.260772021484375, -5.80248854961832, -19.063839694656487, 5.782328244274813, -1.201570804577635, 0.20983262189941404, 0.21699128486328334
35.00000000000023, 0.5027823486328125, -0.2059013427734375, -9.023746057128905, 0.9761374045801529, -28.70506106870229, -11.767290076335874, -0.914266605358885, -0.19718166032714846, 0.45401724921875264
35.10000000000023, 1.1540052001953125, -0.5530605834960938, -9.126696728515624, 1.9456030534351147, -9.086740458015267, 1.721259541984736, -0.263043753796385, -0.5443409010498047, 0.3510665778320341
35.20000000000023, 0.9624690673828125, -0.2346317626953125, -10.160991845703125, 0.6097251908396949, -7.323381679389312, 7.309045801526722, -0.45457988660888504, -0.22591208024902346, -0.6832285393554667
35.30000000000023, 1.8459294799804686, 0.11252747802734374, -9.775525378417969, -0.6192824427480913, 8.340740458015267, -4.6604198473282406, 0.42888052598877113, 0.12124716047363279, -0.29776207207031113
35.40000000000023, 0.5195417602539062, -0.4740519287109375, -9.823409411621093, 6.670793893129771, 33.39417557251908, 4.4464503816793925, -0.8975071937377913, -0.4653322462646484, -0.34564610527343476
35.500000000000234, -1.3120225097656248, -0.02154781494140625, -9.624690673828125, 1.6020916030534353, -18.895900763358778, -21.080267175572516, -2.7290714637573226, -0.012828132495117198, -0.1469273674804672
35.600000000000236, 0.8858546142578124, -0.2705447875976562, -9.414000927734374, -0.81012213740458, -27.285213740458016, 15.377748091603056, -0.5311943397338851, -0.26182510515136714, 0.06376237861328349
35.70000000000024, 0.8714894042968749, 0.3399766357421875, -9.236830004882812, 2.640259541984733, -25.49895419847328, -2.9123282442748053, -0.5455595496948226, 0.3486963181884766, 0.24093330146484604
35.80000000000024, 2.2290017456054687, 0.016759411621093748, -9.560047229003906, -3.6574503816793893, 11.79875572519084, 1.7517938931297756, 0.8119527916137712, 0.0254790940673828, -0.08228392265624862
35.90000000000024, 1.369483349609375, -0.009576806640625, -9.72285294189453, 3.739496183206107, 0.18043511450381705, -5.477213740458011, -0.04756560438232249, -0.0008571241943359474, -0.24508963554687213
36.00000000000024, 2.7078420776367187, 0.19393033447265623, -9.447519750976562, -6.81012213740458, 32.34837404580152, 4.751793893129776, 1.2907931236450212, 0.20265001691894527, 0.030243555371095354
36.10000000000024, -0.19153613281249998, -0.0909796630859375, -9.449913952636718, -5.7490534351145035, 29.730053435114502, -6.515381679389309, -1.6085850868041975, -0.08225998063964844, 0.02784935371093944
36.200000000000244, -0.08140285644531249, -0.13646949462890623, -8.997409838867187, -9.023862595419846, -18.445519083969465, 6.362480916030538, -1.49845181043701, -0.1277498121826172, 0.48035346748047125
36.300000000000246, 0.7422025146484375, 0.062249243164062495, -8.825027319335938, 1.2051450381679394, -20.338648854961832, -15.454312977099232, -0.67484643934326, 0.07096892561035155, 0.6527359870117202
36.40000000000025, 1.6256629272460936, -0.5003881469726562, -9.306261853027344, -2.993328244274809, -7.911167938931297, 4.286145038167943, 0.20861397325439612, -0.49166846452636714, 0.17150145332031386
36.50000000000025, 0.8355763793945312, -0.5698199951171875, -10.345345373535155, -2.107832061068702, 0.5392137404580155, 4.1182061068702325, -0.5814725745971663, -0.5611003126708984, -0.867582067187497
36.60000000000025, 1.2138602416992186, -0.32082302246093747, -9.828197814941406, -1.7948549618320606, 9.920893129770993, -4.271106870229003, -0.20318871229247892, -0.3121033400146484, -0.35043450859374836
36.70000000000025, 0.5578489868164063, -0.16998831787109375, -10.311826550292968, 8.960870229007634, 38.77585496183206, -0.13370229007633228, -0.8591999671752912, -0.1612686354248047, -0.8340632439453106
36.80000000000025, -0.18914193115234373, 0.02154781494140625, -10.031704956054687, -8.275770992366411, -13.239412213740458, -17.99629770992366, -1.6061908851440412, 0.030267497387695304, -0.5539416497070295
36.900000000000254, 1.2880804931640624, -0.6464344482421874, -8.94473740234375, 5.84636641221374, -26.1936106870229, 11.377748091603056, -0.12896846082763513, -0.6377147657958984, 0.5330259040039085
37.000000000000256, 1.01514150390625, -0.0526724365234375, -9.275137231445312, 4.388351145038168, -24.521854961832062, 5.4464503816793925, -0.4019074500854476, -0.043952754077148444, 0.20262607490234608
37.10000000000026, 2.1116858642578125, -0.03591302490234375, -9.773131176757811, -2.7566870229007634, 8.043030534351145, 2.6907251908396983, 0.694636910266115, -0.027193342456054696, -0.29536787041015344
37.20000000000026, 1.0797849487304687, -0.28969840087890625, -9.672574707031249, 3.632625954198473, 1.5086793893129773, -10.958129770992363, -0.3372640052612288, -0.2809787184326172, -0.19481140068359082
37.30000000000026, 1.7669208251953124, 0.08379705810546874, -9.157821350097656, -3.764320610687023, 32.14226717557251, 6.232709923664125, 0.34987187120361485, 0.09251674055175779, 0.3199419562500019
37.40000000000026, -0.076614453125, -0.1771709228515625, -9.753977563476562, -7.7490534351145035, 32.363641221374046, -2.3169083969465607, -1.4936634071166974, -0.16845124040527346, -0.27621425712890435
37.50000000000026, 0.09337386474609374, -0.3184288208007812, -9.0788126953125, -7.1994351145038165, -17.254679389312976, 11.202175572519089, -1.3236750892456037, -0.30970913835449215, 0.3989506110351577
37.600000000000264, -0.2657563842773437, -0.10773907470703124, -8.51617530517578, 5.51812213740458, -30.926435114503818, -16.965763358778624, -1.6828053382690413, -0.09901939226074219, 0.9615880011718776
37.700000000000266, 1.446097802734375, -1.0295067138671874, -9.720458740234374, -1.489511450381679, -14.1936106870229, 9.408282442748096, 0.029048848742677436, -1.0207870314208984, -0.24269543388671622
37.80000000000027, 0.6751648681640625, -0.5698199951171875, -9.840168823242188, 0.47232061068702313, 0.5850152671755728, 5.629656488549623, -0.741884085827635, -0.5611003126708984, -0.3624055168945297
37.90000000000027, 1.1228805786132812, -0.03591302490234375, -9.327809667968749, -1.6345496183206105, -4.018038167938931, 1.83576335877863, -0.29416837537841634, -0.027193342456054696, 0.14995363837890885
38.00000000000027, 1.8028338500976562, -0.6368576416015624, -9.014169250488282, 9.571557251908398, 37.72241984732824, 2.1411068702290112, 0.3857848961059587, -0.6281379591552734, 0.4635940558593763
38.10000000000027, -0.33039982910156246, -0.086191259765625, -9.777919580078125, -2.6879847328244275, 10.127, -3.484847328244271, -1.74744878309326, -0.07747157731933595, -0.30015627373046705
38.20000000000027, 0.7996633544921875, -0.8116343627929687, -8.999804040527343, 11.976137404580154, -21.31574809160305, 4.965534351145042, -0.61738559949951, -0.8029146803466797, 0.47795926582031534
38.300000000000274, 0.9696516723632812, 0.04548983154296875, -9.011775048828124, -0.5276793893129769, -21.476053435114505, 13.545687022900768, -0.4473972816284163, 0.0542095139892578, 0.465988257519534
38.400000000000276, 1.886630908203125, 0.06703764648437499, -9.442731347656249, -2.596381679389313, -6.216511450381679, -8.217671755725187, 0.46958195421142745, 0.07575732893066404, 0.03503195869140896
38.50000000000028, 1.0917559570312498, -0.5793968017578125, -9.897629663085937, 1.472320610687023, 6.493412213740458, -2.5611832061068665, -0.32529299696044767, -0.5706771193115234, -0.41986635673827877
38.60000000000028, 1.3287819213867187, -0.17956512451171874, -9.631873278808593, 3.8998015267175576, 7.905625954198474, 7.034236641221376, -0.08826703260497881, -0.1708454420654297, -0.15410997246093494
38.70000000000028, 1.149216796875, 0.028730419921875, -9.34696328125, 2.922702290076336, 5.424709923664122, 0.20980916030534758, -0.2678321571166975, 0.037450102368164054, 0.13080002509765798
38.80000000000028, 0.9121908325195311, -0.13407529296874998, -9.299079248046874, 1.1746106870229012, 0.600282442748092, -0.17187022900762905, -0.5048581214721664, -0.12535561052246094, 0.17868405830078338
38.90000000000028, 0.9457096557617187, -0.12689268798828124, -9.536105212402344, 0.3654503816793896, -6.025671755725191, 2.385381679389317, -0.4713392982299788, -0.11817300554199218, -0.05834190605468592
39.000000000000284, 1.120486376953125, -0.18914193115234373, -9.543287817382812, -0.4513435114503814, -8.491320610687023, -0.6909541984732783, -0.2965625770385725, -0.1804222487060547, -0.06552451103515367
39.100000000000286, 1.3287819213867187, -0.19871873779296872, -9.478644372558593, -0.6040152671755722, -5.8500992366412214, -0.46194656488549235, -0.08826703260497881, -0.18999905534667968, -0.0008810662109350886
39.20000000000029, 1.2138602416992186, -0.28730419921875, -9.45470235595703, 0.1517099236641224, -0.45315267175572493, -0.2176717557251866, -0.20318871229247892, -0.27858451677246093, 0.02306095039062761
39.30000000000029, 1.2210428466796874, -0.143652099609375, -9.334992272949219, 0.35781679389313004, 2.615549618320611, 0.06477099236641592, -0.19600610731201007, -0.13493241716308596, 0.14277103339843933
39.40000000000029, 1.0319009155273438, -0.08858546142578125, -9.220070593261719, 0.1669770992366415, 4.867458015267176, 0.9960687022900796, -0.38514803846435375, -0.0798657789794922, 0.2576927130859392
39.50000000000029, 1.0223241088867188, -0.08140285644531249, -9.287108239746093, 1.4570534351145041, 3.6079160305343514, 0.34721374045801845, -0.39472484510497874, -0.07268317399902344, 0.19065506660156473
39.60000000000029, 1.13006318359375, -0.16998831787109375, -9.382876306152344, 4.602091603053435, 5.218603053435115, -1.8894274809160265, -0.2869857703979475, -0.1612686354248047, 0.09488700019531393
39.700000000000294, 1.1635820068359375, 0.15083470458984374, -9.97903251953125, 5.006671755725191, 5.730053435114504, 1.2556106870229051, -0.25346694715576, 0.15955438703613278, -0.5012692131835923
39.800000000000296, 0.8834604125976562, 0.07900865478515624, -9.548076220703125, 2.7929312977099237, 3.035396946564886, 0.6449236641221407, -0.5335885413940413, 0.0877283372314453, -0.07031291435546727
39.9000000000003, 0.7829039428710937, 0.10773907470703124, -8.908824377441405, 3.1517099236641224, -2.934068702290076, 2.0876717557251947, -0.6341450111206038, 0.1164587571533203, 0.5689389289062525
40.0000000000003, 1.0845733520507812, -0.6560112548828124, -8.2743609375, -3.359740458015267, -11.552389312977098, -0.8817938931297675, -0.3324756019409163, -0.6472915724365234, 1.2034023688476587
40.1000000000003, 1.3551181396484375, 0.009576806640625, -9.734823950195311, -19.084931297709925, -12.964603053435114, -1.843625954198469, -0.06193081434325998, 0.01829648908691405, -0.2570606438476535
40.2000000000003, 1.7501614135742187, -1.4772224243164063, -9.919177478027343, -2.6879847328244275, -9.247045801526717, 6.034236641221378, 0.3331124595825212, -1.4685027418701173, -0.44141417167968555
40.3000000000003, 1.8195932617187498, -0.8403647827148437, -9.512163195800781, 1.7700305343511453, -0.8500992366412212, 0.7899618320610724, 0.4025443077270523, -0.8316451002685546, -0.03439988945312322
40.400000000000304, 1.8124106567382812, -0.3806780639648437, -9.521740002441407, 1.6707938931297712, 1.5697480916030537, -1.9886641221374006, 0.39536170274658367, -0.37195838151855465, -0.04397669609374866
40.500000000000306, 1.3934253662109375, -0.24660277099609373, -9.476250170898437, 0.5639236641221378, -0.24704580152671732, 1.0953053435114537, -0.023623587780760014, -0.2378830885498047, 0.001513135449220826
40.60000000000031, 1.3144167114257812, -0.47644613037109373, -9.452308154296874, 0.32728244274809193, -2.7890305343511446, 1.5151526717557289, -0.1026322425659163, -0.46772644792480467, 0.025455152050783525
40.70000000000031, 1.848323681640625, -0.25139117431640623, -9.548076220703125, -0.2757709923664119, -3.3233816793893127, 4.553320610687027, 0.4312747276489275, -0.2426714918701172, -0.07031291435546727
40.80000000000031, 1.7334020019531249, -0.612915625, -9.433154541015625, -0.09256488549618291, -3.666893129770992, -0.8894274809160265, 0.3163530479614274, -0.6041959425537109, 0.04460876533203262
40.90000000000031, 1.7190367919921874, -0.7517793212890624, -9.567229833984374, 1.52575572519084, -1.4455190839694654, -1.8894274809160265, 0.3019878380004899, -0.7430596388427734, -0.08946652763671636
41.00000000000031, 1.8938135131835936, -0.26815058593749996, -9.533711010742186, 1.5028549618320612, -1.567656488549618, 0.599122137404585, 0.4767645591918961, -0.2594309034912109, -0.05594770439452823
41.100000000000314, 1.8124106567382812, -0.24660277099609373, -9.540893615722656, 0.907435114503817, 1.1728015267175576, 0.2708778625954231, 0.39536170274658367, -0.2378830885498047, -0.06313030937499775
41.200000000000315, 1.6424223388671875, -0.5339069702148437, -9.428366137695312, 0.9303358778625958, 0.646083969465649, 0.7136259541984771, 0.22537338487548997, -0.5251872877685546, 0.049397168652346224
41.30000000000032, 1.5011644409179687, -0.3184288208007812, -9.265560424804686, 1.922702290076336, 0.9743282442748094, -1.0497328244274762, 0.08411548692627124, -0.30970913835449215, 0.2122028815429715
41.40000000000032, 1.8698714965820311, -0.2920926025390625, -9.473855969238281, 1.2509465648854965, 0.7071526717557255, 2.6830916030534393, 0.4528225425903336, -0.28337292009277343, 0.003907337109376741
41.50000000000032, 1.608903515625, -0.29448680419921874, -9.349357482910156, 1.7013282442748094, 1.4094427480916034, -0.5306488549618287, 0.1918545616333025, -0.2857671217529297, 0.12840582343750206
41.60000000000032, 1.7621324218749999, -0.24899697265624998, -9.617508068847656, 1.0677404580152676, 0.6384503816793896, -0.4466793893129726, 0.34508346788330235, -0.24027729020996094, -0.13974476249999768
41.70000000000032, 1.6328455322265625, -0.21787235107421873, -9.452308154296874, 1.4494198473282447, 1.233870229007634, -0.16423664122137005, 0.21579657823486498, -0.2091526686279297, 0.025455152050783525
41.800000000000324, 1.484405029296875, -0.08858546142578125, -9.634267480468749, 0.991404580152672, 0.34074045801526737, 0.33194656488550045, 0.0673560753051774, -0.0798657789794922, -0.15650417412109086
41.900000000000325, 1.6256629272460936, -0.21068974609375, -9.514557397460937, 1.02957251908397, 0.1880687022900766, -0.6909541984732783, 0.20861397325439612, -0.20197006364746095, -0.03679409111327914
42.00000000000033, 1.6903063720703124, -0.13168109130859373, -9.490615380859374, 0.1822442748091606, 0.600282442748092, -0.8970610687022855, 0.2732574180786149, -0.12296140886230468, -0.012852074511716438
42.10000000000033, 1.4317325927734375, -0.13646949462890623, -9.176974963378905, 1.9914045801526719, 1.768221374045802, -0.16423664122137005, 0.01468363878173995, -0.1277498121826172, 0.3007883429687528
42.20000000000033, 1.66636435546875, -0.30406361083984373, -9.763554370117188, 1.4036183206106871, -0.07910687022900739, 0.018969465648858375, 0.24931540147705245, -0.29534392839355467, -0.2857910637695298
42.30000000000033, 1.5490484741210937, 0.05985504150390625, -9.267954626464844, 0.7547633587786263, 0.7758549618320614, -0.4237786259541938, 0.1319995201293962, 0.0685747239501953, 0.20980867988281382
42.40000000000033, 1.6017209106445311, -0.14125789794921875, -9.782707983398437, 0.9227022900763361, 0.4857786259541987, -0.5001145038167891, 0.18467195665283365, -0.1325382155029297, -0.3049446770507789
42.500000000000334, 1.467645617675781, -0.2825157958984375, -9.622296472167967, 1.304381679389313, 0.5392137404580155, 0.7059923664122181, 0.050596663684083554, -0.27379611345214844, -0.1445331658203095
42.600000000000335, 1.5873557006835937, -0.047884033203124995, -9.629479077148437, 1.0601068702290077, 1.432343511450382, -1.4924809160305301, 0.17030674669189616, -0.03916435075683594, -0.15171577080077903
42.70000000000034, 1.5753846923828123, -0.00718260498046875, -9.349357482910156, 0.991404580152672, 2.5926488549618325, -1.16423664122137, 0.1583357383911148, 0.001537077465820302, 0.12840582343750206
42.80000000000034, 1.3838485595703125, 0.0909796630859375, -9.425971936035156, 0.2662137404580156, 0.8292900763358781, -0.3169083969465607, -0.033200394421385004, 0.09969934553222655, 0.05179137031250214
42.90000000000034, 1.5298948608398437, 0.11731588134765625, -9.548076220703125, -0.0696641221374043, 0.23387022900763382, 0.23270992366412635, 0.11284590684814622, 0.1260355637939453, -0.07031291435546727
43.00000000000034, 1.448492004394531, -0.0718260498046875, -9.399635717773437, 0.02957251908396974, 0.7376870229007637, 0.15637404580153103, 0.03144305040283357, -0.06310636735839845, 0.07812758857422075
43.10000000000034, 1.407790576171875, -0.033518823242187495, -9.423577734375, 0.1669770992366415, 0.3712748091603056, -0.1108015267175535, -0.009258377819822527, -0.02479914079589844, 0.05418557197265805
43.200000000000344, 1.4413093994140624, -0.03591302490234375, -9.466673364257812, 0.20514503816793916, -0.4455190839694654, -0.2100381679389276, 0.02426044542236494, -0.027193342456054696, 0.01108994208984626
43.300000000000345, 1.5490484741210937, -0.028730419921875, -9.512163195800781, -0.11546564885496152, 0.004862595419847571, 0.4006488549618368, 0.1319995201293962, -0.020010737475585946, -0.03439988945312322
43.40000000000035, 1.4173673828125, -0.047884033203124995, -9.459490759277344, 0.06010687022900796, -0.018038167938931038, -0.049732824427476174, 0.00031842882080246326, -0.03916435075683594, 0.018272547070314005
43.50000000000035, 1.4987702392578124, -0.016759411621093748, -9.516951599121093, 0.32728244274809193, 0.6231832061068705, -1.286374045801523, 0.08172128526611488, -0.008039729174804696, -0.03918829277343505
43.60000000000035, 1.5203180541992187, -0.02154781494140625, -9.605537060546874, -0.35210687022900733, -0.002770992366411984, 0.4159160305343548, 0.10326910020752122, -0.012828132495117198, -0.12777375419921633
43.70000000000035, 1.407790576171875, 0.02154781494140625, -9.624690673828125, 0.06010687022900796, -0.9646030534351142, 0.12583969465649325, -0.009258377819822527, 0.030267497387695304, -0.1469273674804672
43.80000000000035, 1.6472107421875, -0.009576806640625, -9.449913952636718, -0.0467633587786257, -1.0485725190839692, 0.42354961832061555, 0.23016178819580246, -0.0008571241943359474, 0.02784935371093944
43.900000000000354, 1.484405029296875, 0.023942016601562498, -9.485826977539062, 0.04483969465648885, 0.546847328244275, 0.2861450381679429, 0.0673560753051774, 0.03266169904785155, -0.008063671191404609
44.000000000000355, 1.5179238525390624, 0.0047884033203125, -9.504980590820312, 0.01430534351145063, 0.6842519083969467, 0.3166793893129807, 0.10087489854736487, 0.013508085766601553, -0.027217284472653702
44.10000000000036, 1.350329736328125, 0.011971008300781249, -9.485826977539062, 0.2509465648854965, -0.42261832061068677, -0.0191984732824384, -0.06671921766357247, 0.0206906907470703, -0.008063671191404609
44.20000000000036, 1.3910311645507811, 0.0718260498046875, -9.5001921875, 0.6173587786259546, -0.651625954198473, -0.08790076335877473, -0.026017789440916372, 0.08054573225097655, -0.022428881152341873
44.30000000000036, 1.6112977172851561, 0.0718260498046875, -9.404424121093749, -0.2757709923664119, 0.1957022900763361, -0.6833206106870193, 0.19424876329345864, 0.08054573225097655, 0.07333918525390892
44.40000000000036, 1.5490484741210937, 0.1388636962890625, -9.387664709472656, -0.4437099236641219, 0.600282442748092, 0.32431297709924145, 0.1319995201293962, 0.14758337873535154, 0.0900985968750021
44.50000000000036, 1.3455413330078123, 0.047884033203124995, -9.509768994140625, 0.15934351145038195, -0.26994656488549595, 0.049503816793897926, -0.07150762098388519, 0.05660371564941405, -0.03200568779296731
44.600000000000364, 1.4317325927734375, -0.0143652099609375, -9.476250170898437, 0.06010687022900796, -0.5447557251908395, -0.2863740458015229, 0.01468363878173995, -0.005645527514648448, 0.001513135449220826
44.700000000000365, 1.455674609375, 0.05746083984375, -9.490615380859374, -0.03912977099236614, 0.07356488549618345, -0.06499999999999595, 0.038625655383302426, 0.06618052229003905, -0.012852074511716438
44.80000000000037, 1.419761584472656, 0.016759411621093748, -9.469067565917967, 0.021938931297710185, 0.36364122137404603, -0.05736641221373695, 0.0027126304809586, 0.0254790940673828, 0.008695740429690346
44.90000000000037, 1.3646949462890625, 0.0047884033203125, -9.466673364257812, -0.06203053435114475, -0.25467938931297684, 0.2556106870229051, -0.052354007702634986, 0.013508085766601553, 0.01108994208984626
45.00000000000037, 1.5035586425781249, 0.031124621582031248, -9.437942944335937, -0.0696641221374043, -0.27758015267175545, 1.8662977099236677, 0.08650968858642738, 0.0398443040283203, 0.03982036201172079
45.10000000000037, 1.5514426757812498, -0.13646949462890623, -9.516951599121093, -0.07729770992366386, 0.1728015267175575, 0.12583969465649325, 0.13439372178955233, -0.1277498121826172, -0.03918829277343505
45.20000000000037, 1.5298948608398437, 0.05985504150390625, -9.481038574218749, 0.09064122137404607, 0.20333587786259566, 0.04187022900763715, 0.11284590684814622, 0.0685747239501953, -0.0032752678710910033
45.300000000000374, 1.4508862060546874, 0.00718260498046875, -9.483432775878907, -0.0009618320610684239, -0.31574809160305317, -0.1184351145038125, 0.03383725206298993, 0.015902287426757804, -0.005669469531248694
45.400000000000375, 1.3862427612304686, -0.009576806640625, -9.476250170898437, -0.09256488549618291, -0.1707099236641219, 0.02660305343511915, -0.030806192761228868, -0.0008571241943359474, 0.001513135449220826
45.50000000000038, 1.4772224243164063, -0.033518823242187495, -9.452308154296874, 0.10590839694656518, 0.32547328244274837, 0.03423664122137815, 0.06017347032470877, -0.02479914079589844, 0.025455152050783525
45.60000000000038, 1.47482822265625, 0.09576806640624999, -9.445125549316407, -0.0696641221374043, 0.0659312977099239, 0.0953053435114537, 0.05777926866455241, 0.10448774885253904, 0.03263775703125127
45.70000000000038, 1.484405029296875, 0.0526724365234375, -9.457096557617186, -0.0696641221374043, 1.615549618320611, -0.1031679389312945, 0.0673560753051774, 0.06139211896972655, 0.020666748730471696
45.80000000000038, 1.465251416015625, -0.0047884033203125, -9.471461767578125, -0.054396946564885196, 0.012496183206107125, -0.09553435114503372, 0.04820246202392742, 0.003931279125976552, 0.006301538769532655
45.90000000000038, 1.5418658691406248, 0.04548983154296875, -9.459490759277344, -0.07729770992366386, -0.002770992366411984, -0.0039312977099204005, 0.12481691514892734, 0.0542095139892578, 0.018272547070314005
46.000000000000384, 1.2569558715820313, -0.14604630126953125, -9.466673364257812, 0.06010687022900796, -0.07910687022900739, 1.9197328244274843, -0.16009308240966624, -0.1373266188232422, 0.01108994208984626
46.100000000000385, 1.4772224243164063, -0.023942016601562498, -9.4618849609375, -0.023862595419847032, 1.6537175572519087, 0.16400763358779002, 0.06017347032470877, -0.015222334155273446, 0.01587834541015809
46.20000000000039, 1.4700398193359374, -0.086191259765625, -9.437942944335937, -0.07729770992366386, -0.03330534351145015, 0.0876717557251947, 0.05299086534423991, -0.07747157731933595, 0.03982036201172079
46.30000000000039, 1.3335703247070312, -0.15083470458984374, -9.581595043945311, -0.14599999999999974, 0.04303053435114529, -0.0115648854961794, -0.08347862928466632, -0.1421150221435547, -0.10383173759765363
46.40000000000039, 1.388636962890625, -0.0430956298828125, -9.497797985839844, -0.0009618320610684239, -0.16307633587786236, 0.10293893129771448, -0.02841199110107251, -0.034375947436523446, -0.02003467949218596
46.50000000000039, 1.637633935546875, -0.1484405029296875, -9.488221179199218, -0.03149618320610659, -0.056206106870228756, -0.06499999999999595, 0.22058498155517747, -0.13972082048339846, -0.010457872851560523
46.60000000000039, 1.388636962890625, 0.00718260498046875, -9.478644372558593, 0.06010687022900796, 0.081198473282443, 0.03423664122137815, -0.02841199110107251, 0.015902287426757804, -0.0008810662109350886
46.700000000000394, 1.4053963745117186, 0.1292868896484375, -9.49300958251953, 0.037206106870229294, 0.04303053435114529, 0.0037022900763403754, -0.011652579479978886, 0.13800657209472653, -0.015246276171872353
46.800000000000395, 1.39821376953125, 0.0383072265625, -9.349357482910156, 0.06774045801526751, -0.10964122137404556, -0.14133587786259127, -0.018835184460447518, 0.04702690900878905, 0.12840582343750206
46.9000000000004, 1.4867992309570313, 0.0143652099609375, -9.509768994140625, -0.09256488549618291, -0.025671755725190593, 0.14874045801527203, 0.06975027696533376, 0.023084892407226554, -0.03200568779296731
47.0000000000004, 1.4006079711914061, -0.05027823486328125, -9.497797985839844, -0.03149618320610659, -0.018038167938931038, 0.03423664122137815, -0.01644098280029138, -0.041558552416992196, -0.02003467949218596
47.1000000000004, 1.4006079711914061, 0.009576806640625, -9.488221179199218, -0.023862595419847032, -0.1554427480916028, 0.04187022900763715, -0.01644098280029138, 0.01829648908691405, -0.010457872851560523
47.2000000000004, 1.5155296508789062, 0.028730419921875, -9.627084875488281, 0.11354198473282473, -0.11727480916030511, 0.0876717557251947, 0.09848069688720873, 0.037450102368164054, -0.1493215691406231
47.3000000000004, 1.4030021728515625, 0.05027823486328125, -9.4618849609375, 0.021938931297710185, -0.08674045801526692, 0.018969465648858375, -0.014046781140135023, 0.058997917309570304, 0.01587834541015809
47.400000000000404, 1.4891934326171874, 0.08379705810546874, -9.65342109375, 0.021938931297710185, 0.02776335877862618, 1.927366412213745, 0.0721444786254899, 0.09251674055175779, -0.17565778740234173
47.500000000000405, 1.4772224243164063, -0.0526724365234375, -9.473855969238281, -0.03912977099236614, -0.07147328244274784, 0.10293893129771448, 0.06017347032470877, -0.043952754077148444, 0.003907337109376741
47.600000000000406, 1.4820108276367188, -0.023942016601562498, -9.495403784179686, -0.06203053435114475, 0.04303053435114529, -0.0039312977099204005, 0.06496187364502126, -0.015222334155273446, -0.017640477832028267
47.70000000000041, 1.4413093994140624, 0.0383072265625, -9.464279162597656, 0.021938931297710185, 0.08883206106870256, 0.049503816793897926, 0.02426044542236494, 0.04702690900878905, 0.013484143750002175
47.80000000000041, 1.4508862060546874, -0.13407529296874998, -9.651026892089844, 0.11354198473282473, -0.04857251908396923, 0.23270992366412635, 0.03383725206298993, -0.12535561052246094, -0.1732635857421858
47.90000000000041, 1.35990654296875, 0.0047884033203125, -9.459490759277344, 0.037206106870229294, -0.06383969465648831, 1.8891984732824465, -0.05714241102294748, 0.013508085766601553, 0.018272547070314005
48.00000000000041, 1.5203180541992187, 0.047884033203124995, -9.418789331054686, 0.04483969465648885, 0.14226717557251933, -0.07263358778625495, 0.10326910020752122, 0.05660371564941405, 0.05897397529297166
48.10000000000041, 1.4149731811523436, -0.0430956298828125, -9.370905297851563, -0.023862595419847032, 0.081198473282443, -0.049732824427476174, -0.0020757728393538954, -0.034375947436523446, 0.10685800849609528
48.200000000000415, 1.429338391113281, 0.031124621582031248, -9.495403784179686, 0.021938931297710185, -0.03330534351145015, -1.958129770992362, 0.01228943712158359, 0.0398443040283203, -0.017640477832028267
48.300000000000416, 1.446097802734375, -0.016759411621093748, -9.490615380859374, 0.08300763358778651, 0.012496183206107125, 0.0876717557251947, 0.029048848742677436, -0.008039729174804696, -0.012852074511716438
48.40000000000042, 1.448492004394531, 0.02633621826171875, -9.459490759277344, -0.08493129770992336, -0.10964122137404556, 0.0800381679389357, 0.03144305040283357, 0.0350559007080078, 0.018272547070314005
48.50000000000042, 1.388636962890625, 0.0383072265625, -9.469067565917967, 0.037206106870229294, 0.004862595419847571, -0.1184351145038125, -0.02841199110107251, 0.04702690900878905, 0.008695740429690346
48.60000000000042, 1.3431471313476562, 0.01915361328125, -9.514557397460937, -0.016229007633587478, -0.21651145038167913, -0.1108015267175535, -0.07390182264404133, 0.02787329572753905, -0.03679409111327914
48.70000000000042, 1.37906015625, 0.01915361328125, -9.476250170898437, -0.14599999999999974, -0.018038167938931038, 0.06477099236641592, -0.0379887977416975, 0.02787329572753905, 0.001513135449220826
48.80000000000042, 1.5131354492187499, 0.011971008300781249, -9.478644372558593, -0.06203053435114475, 0.004862595419847571, 0.04187022900763715, 0.09608649522705237, 0.0206906907470703, -0.0008810662109350886
48.900000000000425, 1.448492004394531, -0.0143652099609375, -9.49300958251953, 0.02957251908396974, -0.010404580152671483, 0.14110687022901125, 0.03144305040283357, -0.005645527514648448, -0.015246276171872353
49.000000000000426, 1.5586252807617187, -0.05985504150390625, -9.509768994140625, 0.13644274809160328, -0.002770992366411984, 0.06477099236641592, 0.1415763267700212, -0.051135359057617194, -0.03200568779296731
49.10000000000043, 1.4125789794921875, -0.0526724365234375, -9.442731347656249, -0.016229007633587478, 0.0659312977099239, 0.03423664122137815, -0.004469974499510032, -0.043952754077148444, 0.03503195869140896
49.20000000000043, 1.4053963745117186, 0.016759411621093748, -9.636661682128906, 0.15934351145038195, -0.08674045801526692, -1.9657633587786218, -0.011652579479978886, 0.0254790940673828, -0.15889837578124855
